seq,stamp,elapsed_time,yaw,pitch,roll,mag_x,mag_y,mag_z,accel_x,accel_y,accel_z,gyro_x,gyro_y,gyro_z,mag_x_corr,mag_y_corr,mag_z_corr
211,1710359569.4113,0,3.337,1.452,7.39,-0.0413,0.1769,0.2344,0.555,-1.688,-10.273,0.005881,0.095079,0.153532,0.0422365324454553,0.20640801287533,0.341222558529376
212,1710359569.4362,0.0249021053314209,3.533,1.598,7.441,-0.0441,0.176,0.232,0.623,-1.217,-9.454,0.017812,0.075342,0.106316,0.0394365324454553,0.20550801287533,0.338822558529376
213,1710359569.46117,0.0498685836791992,3.75,1.688,7.476,-0.0414,0.173,0.2322,0.565,-1.243,-9.63,0.040592,0.101884,0.159426,0.0421365324454553,0.20250801287533,0.339022558529376
214,1710359569.48796,0.0766632556915283,3.99,1.765,7.655,-0.0413,0.1799,0.2343,0.809,-0.531,-9.396,0.13901,0.062565,0.190633,0.0422365324454553,0.20940801287533,0.341122558529376
215,1710359569.51112,0.0998237133026123,4.434,1.748,7.839,-0.0404,0.1808,0.2399,0.728,-0.945,-9.399,0.16052,0.011433,0.366729,0.0431365324454553,0.21030801287533,0.346722558529376
216,1710359569.53771,0.12640905380249,4.969,1.713,8.199,-0.0348,0.1837,0.2391,0.431,-1.765,-9.619,0.293882,0.05455,0.357604,0.0487365324454553,0.21320801287533,0.345922558529376
217,1710359569.56132,0.1500244140625,5.502,1.693,8.545,-0.0328,0.1866,0.2326,0.146,-2.392,-9.788,0.193116,0.033063,0.377112,0.0507365324454553,0.21610801287533,0.339422558529376
218,1710359569.58874,0.177442312240601,5.897,1.753,8.854,-0.0319,0.1866,0.2392,-0.174,-3.116,-9.546,0.208573,0.108242,0.175523,0.0516365324454553,0.21610801287533,0.346022558529376
219,1710359569.61135,0.200046539306641,5.965,1.739,9.16,-0.0318,0.1955,0.238,-0.133,-3.026,-9.307,0.206219,-0.082685,-0.018325,0.0517365324454553,0.22500801287533,0.344822558529376
220,1710359569.63945,0.228146553039551,5.803,1.602,9.481,-0.0308,0.2004,0.2336,0.1,-2.792,-9.601,0.199808,-0.104768,-0.136545,0.0527365324454553,0.22990801287533,0.340422558529376
221,1710359569.6612,0.249901056289673,5.531,1.432,9.645,-0.029,0.1984,0.2371,0.106,-2.694,-9.267,0.101555,-0.183217,-0.18719,0.0545365324454553,0.22790801287533,0.343922558529376
222,1710359569.68597,0.274676084518433,5.118,1.175,9.757,-0.0261,0.2053,0.2383,0.208,-3.166,-8.95,0.036393,-0.264815,-0.319989,0.0574365324454553,0.23480801287533,0.345122558529376
223,1710359569.71134,0.300036907196045,4.466,0.786,9.758,-0.0298,0.2063,0.2314,0.181,-2.93,-9.515,0.040159,-0.37985,-0.453872,0.0537365324454553,0.23580801287533,0.338222558529376
224,1710359569.73596,0.324658393859863,3.655,0.313,9.812,-0.0279,0.2053,0.2371,0.328,-2.941,-10.272,0.038198,-0.421877,-0.543648,0.0556365324454553,0.23480801287533,0.343922558529376
225,1710359569.7609,0.349603891372681,2.73,-0.036,9.894,-0.0306,0.2113,0.2379,0.298,-2.589,-10.481,0.072347,-0.301419,-0.620849,0.0529365324454553,0.24080801287533,0.344722558529376
226,1710359569.78591,0.374614000320435,1.763,-0.269,9.989,-0.0315,0.2133,0.2334,0.185,-2.511,-10.492,0.058174,-0.260035,-0.648678,0.0520365324454553,0.24280801287533,0.340222558529376
227,1710359569.81092,0.399617910385132,0.756,-0.387,10.106,-0.0325,0.2074,0.2356,-0.175,-2.197,-10.599,0.083504,-0.176016,-0.689573,0.0510365324454553,0.23690801287533,0.342422558529376
228,1710359569.83598,0.424685955047607,-0.31,-0.419,10.123,-0.0352,0.2144,0.2321,-0.328,-2.019,-11.376,-0.031191,-0.10795,-0.752444,0.0483365324454553,0.24390801287533,0.338922558529376
229,1710359569.86091,0.44961142539978,-1.352,-0.233,10.103,-0.0389,0.2115,0.2341,-0.466,-1.732,-10.885,-0.00605,0.05111,-0.733042,0.0446365324454553,0.24100801287533,0.340922558529376
230,1710359569.8859,0.474604368209839,-2.405,0.032,10.14,-0.0471,0.2236,0.2334,-0.48,-1.437,-10.564,0.061853,0.069336,-0.765575,0.0364365324454553,0.25310801287533,0.340222558529376
231,1710359569.91125,0.499949932098389,-3.481,0.347,10.279,-0.0519,0.2148,0.2321,-0.428,-1.114,-9.726,0.116602,0.073046,-0.784834,0.0316365324454553,0.24430801287533,0.338922558529376
232,1710359569.93587,0.524569749832153,-4.522,0.586,10.419,-0.0555,0.2169,0.233,-0.341,-1.047,-9.493,0.118151,0.025487,-0.716759,0.0280365324454553,0.24640801287533,0.339822558529376
233,1710359569.96112,0.549824714660645,-5.55,0.77,10.589,-0.0619,0.224,0.2292,-0.112,-1.096,-8.926,0.07798,-0.040505,-0.728043,0.0216365324454553,0.25350801287533,0.336022558529376
234,1710359569.98585,0.574552059173584,-6.588,0.812,10.651,-0.0647,0.2211,0.2312,-0.118,-0.618,-9.946,0.069704,-0.116698,-0.696609,0.0188365324454553,0.25060801287533,0.338022558529376
235,1710359570.01124,0.599946260452271,-7.476,0.826,10.655,-0.0666,0.2191,0.2322,0.036,-0.83,-10.569,-0.054545,-0.089918,-0.560022,0.0169365324454553,0.24860801287533,0.339022558529376
236,1710359570.03582,0.624524116516113,-8.243,0.939,10.59,-0.0703,0.2222,0.2331,0.051,-1.133,-10.379,-0.040196,0.006656,-0.534987,0.0132365324454553,0.25170801287533,0.339922558529376
237,1710359570.06077,0.649466514587402,-8.975,1.094,10.499,-0.0759,0.2164,0.2361,0.095,-0.961,-10.327,-0.046464,0.033349,-0.506518,0.00763653244545527,0.24590801287533,0.342922558529376
238,1710359570.0858,0.674500226974487,-9.632,1.219,10.449,-0.0787,0.2174,0.237,0.09,-0.749,-9.981,-0.017247,-0.012418,-0.433797,0.00483653244545526,0.24690801287533,0.343822558529376
239,1710359570.11142,0.700123071670532,-10.158,1.238,10.37,-0.0805,0.2175,0.2369,0.02,-0.874,-9.797,-0.059639,-0.088912,-0.320276,0.00303653244545526,0.24700801287533,0.343722558529376
240,1710359570.13619,0.724888324737549,-10.594,1.11,10.237,-0.0795,0.2254,0.2324,-0.068,-1.187,-9.918,-0.100746,-0.176323,-0.278883,0.00403653244545527,0.25490801287533,0.339222558529376
241,1710359570.1608,0.749498844146729,-11.016,0.96,10.028,-0.0824,0.2175,0.2367,0.043,-1.234,-10.345,-0.166018,-0.110137,-0.272066,0.00113653244545527,0.24700801287533,0.343522558529376
242,1710359570.19475,0.783452033996582,-11.411,0.941,9.758,-0.0815,0.2126,0.2325,0.174,-1.26,-9.633,-0.164284,-0.064463,-0.274407,0.00203653244545526,0.24210801287533,0.339322558529376
243,1710359570.21072,0.799419164657593,-11.8,0.886,9.619,-0.0843,0.2126,0.2378,0.165,-1.164,-9.774,-0.043605,-0.095696,-0.245694,-0.000763467554544733,0.24210801287533,0.344622558529376
244,1710359570.23568,0.824386119842529,-12.14,0.838,9.618,-0.0833,0.2136,0.2323,0.165,-1.44,-10.06,0.019965,-0.039699,-0.219612,0.000236532445455268,0.24310801287533,0.339122558529376
245,1710359570.2607,0.849398136138916,-12.422,0.887,9.598,-0.0841,0.2225,0.2355,0.096,-1.181,-10.148,-0.053268,0.048294,-0.169766,-0.000563467554544728,0.25200801287533,0.342322558529376
246,1710359570.28585,0.874553680419922,-12.632,1.034,9.489,-0.0852,0.2156,0.2366,-0.033,-1.596,-9.288,-0.073258,0.058879,-0.184591,-0.00166346755454473,0.24510801287533,0.343422558529376
247,1710359570.31089,0.899587631225586,-12.872,1.051,9.363,-0.0871,0.2097,0.2409,0.062,-1.518,-9.487,-0.063667,-0.038583,-0.155252,-0.00356346755454473,0.23920801287533,0.347722558529376
248,1710359570.3364,0.925102710723877,-13.118,0.982,9.299,-0.0862,0.2117,0.2377,-0.008,-1.556,-9.558,-0.044822,-0.103066,-0.157572,-0.00266346755454473,0.24120801287533,0.344522558529376
249,1710359570.36053,0.949233770370483,-13.414,0.838,9.236,-0.087,0.2147,0.2398,-0.032,-1.382,-10.104,-0.036448,-0.136046,-0.193248,-0.00346346755454473,0.24420801287533,0.346622558529376
250,1710359570.38665,0.975353479385376,-13.664,0.742,9.133,-0.0862,0.2107,0.241,-0.071,-1.491,-10.257,-0.091447,-0.061667,-0.149929,-0.00266346755454473,0.24020801287533,0.347822558529376
251,1710359570.41045,0.99915075302124,-13.907,0.737,8.983,-0.0889,0.2147,0.2407,0.061,-1.306,-9.995,-0.1392,-0.020889,-0.163941,-0.00536346755454474,0.24420801287533,0.347522558529376
252,1710359570.43653,1.02523422241211,-14.166,0.765,8.812,-0.0908,0.2128,0.2406,0.138,-0.987,-9.835,-0.094552,-0.009222,-0.176791,-0.00726346755454474,0.24230801287533,0.347422558529376
253,1710359570.46159,1.05029344558716,-14.361,0.773,8.671,-0.0908,0.2098,0.2396,0.147,-0.891,-9.732,-0.082438,-0.028927,-0.112471,-0.00726346755454474,0.23930801287533,0.346422558529376
254,1710359570.48633,1.07503533363342,-14.452,0.71,8.576,-0.0927,0.2059,0.2439,0.064,-0.964,-9.677,-0.084665,-0.078594,-0.017948,-0.00916346755454474,0.23540801287533,0.350722558529376
255,1710359570.51144,1.1001443862915,-14.503,0.592,8.489,-0.0918,0.2088,0.2439,-0.095,-1.284,-10.384,-0.046048,-0.057019,-0.0322,-0.00826346755454474,0.23830801287533,0.350722558529376
256,1710359570.53628,1.12498140335083,-14.58,0.545,8.385,-0.0899,0.2078,0.2452,-0.073,-0.968,-10.212,-0.057974,-0.044963,-0.045437,-0.00636346755454473,0.23730801287533,0.352022558529376
257,1710359570.56144,1.15013837814331,-14.625,0.499,8.338,-0.0899,0.2128,0.2396,-0.006,-1.153,-10.16,-0.055333,-0.018657,-0.043209,-0.00636346755454473,0.24230801287533,0.346422558529376
258,1710359570.58625,1.17495059967041,-14.674,0.545,8.277,-0.0899,0.2118,0.2407,0.085,-1.162,-9.628,-0.020647,0.036957,-0.029793,-0.00636346755454473,0.24130801287533,0.347522558529376
259,1710359570.61116,1.19985795021057,-14.727,0.476,8.278,-0.0928,0.2029,0.2406,-0.009,-1.564,-9.703,0.026941,-0.115206,-0.043865,-0.00926346755454473,0.23240801287533,0.347422558529376
260,1710359570.63615,1.22484946250916,-14.839,0.341,8.337,-0.0908,0.2098,0.244,-0.077,-1.722,-10.15,0.02464,-0.089214,-0.086915,-0.00726346755454474,0.23930801287533,0.350822558529376
261,1710359570.66114,1.24983763694763,-15.051,0.299,8.271,-0.0908,0.2108,0.2418,-0.081,-1.739,-9.838,-0.055123,-0.043189,-0.178334,-0.00726346755454474,0.24030801287533,0.348622558529376
262,1710359570.68616,1.27486419677734,-15.384,0.225,8.25,-0.0927,0.2059,0.2439,-0.089,-1.746,-9.437,0.064831,-0.121538,-0.2516,-0.00916346755454474,0.23540801287533,0.350722558529376
263,1710359570.71111,1.29981231689453,-15.792,0.082,8.382,-0.0919,0.2019,0.2407,0.106,-1.501,-9.191,0.065887,-0.150535,-0.24967,-0.00836346755454473,0.23140801287533,0.347522558529376
264,1710359570.73608,1.32478022575378,-16.086,-0.163,8.397,-0.0917,0.2108,0.2439,-0.017,-1.172,-9.738,-0.041063,-0.197395,-0.124382,-0.00816346755454474,0.24030801287533,0.350722558529376
265,1710359570.76107,1.34977173805237,-16.184,-0.387,8.282,-0.0918,0.2088,0.2461,-0.065,-1.529,-10.194,-0.098543,-0.135392,-0.006933,-0.00826346755454474,0.23830801287533,0.352922558529376
266,1710359570.78605,1.3747546672821,-16.241,-0.544,8.177,-0.0882,0.2008,0.2453,-0.12,-1.859,-10.056,-0.05197,-0.118941,-0.053728,-0.00466346755454473,0.23030801287533,0.352122558529376
267,1710359570.81105,1.39975237846375,-16.374,-0.684,8.164,-0.089,0.2088,0.2419,0.015,-1.316,-10.043,0.018223,-0.106992,-0.07552,-0.00546346755454473,0.23830801287533,0.348722558529376
268,1710359570.83602,1.42472410202026,-16.471,-0.805,8.254,-0.0881,0.2087,0.2453,-0.017,-1.354,-10.247,0.098619,-0.096481,-0.051243,-0.00456346755454473,0.23820801287533,0.352122558529376
269,1710359570.86098,1.44968461990356,-16.521,-0.888,8.438,-0.0871,0.2097,0.2398,0.065,-1.387,-10.842,0.137866,-0.017125,-0.003101,-0.00356346755454473,0.23920801287533,0.346622558529376
270,1710359570.88598,1.4746835231781,-16.48,-0.796,8.614,-0.0891,0.2048,0.242,0.008,-1.646,-10.466,0.112903,0.115482,0.028736,-0.00556346755454473,0.23430801287533,0.348822558529376
271,1710359570.91092,1.49962306022644,-16.443,-0.595,8.778,-0.089,0.2108,0.2408,-0.149,-1.735,-9.715,0.117615,0.135789,-0.011467,-0.00546346755454473,0.24030801287533,0.347622558529376
272,1710359570.93596,1.52466058731079,-16.473,-0.434,8.915,-0.0908,0.2118,0.2418,-0.294,-1.72,-9.481,0.093956,0.098389,-0.061686,-0.00726346755454474,0.24130801287533,0.348622558529376
273,1710359570.96091,1.54960823059082,-16.577,-0.351,9.039,-0.0927,0.2099,0.2395,-0.342,-1.598,-9.309,0.093761,0.010635,-0.103505,-0.00916346755454474,0.23940801287533,0.346322558529376
274,1710359570.98592,1.57462644577026,-16.713,-0.389,9.18,-0.0935,0.2138,0.2427,-0.228,-1.027,-9.508,0.082593,-0.069447,-0.061962,-0.00996346755454473,0.24330801287533,0.349522558529376
275,1710359571.01088,1.59958410263062,-16.77,-0.501,9.26,-0.0908,0.2108,0.2352,-0.154,-1.312,-9.857,0.05318,-0.081271,-0.017608,-0.00726346755454474,0.24030801287533,0.342022558529376
276,1710359571.03589,1.62458777427673,-16.807,-0.617,9.319,-0.0908,0.2138,0.2384,-0.165,-1.478,-10.077,0.04413,-0.089614,-0.018337,-0.00726346755454474,0.24330801287533,0.345222558529376
277,1710359571.06091,1.64960718154907,-16.873,-0.711,9.396,-0.088,0.2137,0.2408,-0.135,-1.508,-10.098,0.0609,-0.059101,-0.054025,-0.00446346755454473,0.24320801287533,0.347622558529376
278,1710359571.08588,1.67458438873291,-16.951,-0.769,9.48,-0.0908,0.2088,0.2385,-0.003,-1.548,-10.222,0.058013,-0.02202,-0.038752,-0.00726346755454474,0.23830801287533,0.345322558529376
279,1710359571.11082,1.69952440261841,-17.02,-0.775,9.531,-0.0898,0.2138,0.2363,0.119,-1.381,-9.792,0.010176,-0.034311,-0.031976,-0.00626346755454474,0.24330801287533,0.343122558529376
280,1710359571.13585,1.72455596923828,-17.065,-0.807,9.587,-0.0917,0.2138,0.2395,-0.046,-1.6,-10.017,0.052067,-0.032854,-0.025622,-0.00816346755454474,0.24330801287533,0.346322558529376
281,1710359571.16081,1.7495129108429,-17.081,-0.833,9.618,-0.0908,0.2118,0.2407,-0.281,-1.728,-10.434,0.010479,0.009307,0.00221,-0.00726346755454474,0.24130801287533,0.347522558529376
282,1710359571.18581,1.77451491355896,-17.111,-0.769,9.666,-0.0899,0.2118,0.2363,-0.308,-1.848,-10.388,0.040087,0.066738,-0.050175,-0.00636346755454473,0.24130801287533,0.343122558529376
283,1710359571.21074,1.79944109916687,-17.2,-0.617,9.662,-0.0926,0.2138,0.2372,-0.229,-1.336,-10.041,0.002364,0.119304,-0.084774,-0.00906346755454474,0.24330801287533,0.344022558529376
284,1710359571.23574,1.82444429397583,-17.223,-0.466,9.687,-0.0925,0.2198,0.2361,-0.074,-1.073,-9.39,0.009984,0.08058,0.008411,-0.00896346755454473,0.24930801287533,0.342922558529376
285,1710359571.26072,1.84942150115967,-17.136,-0.438,9.726,-0.0954,0.2139,0.2392,-0.174,-1.219,-9.779,0.057058,0.007541,0.07503,-0.0118634675545447,0.24340801287533,0.346022558529376
286,1710359571.28576,1.87446403503418,-17.001,-0.439,9.759,-0.0889,0.2147,0.2407,-0.13,-1.611,-10.015,0.000232,0.01219,0.07832,-0.00536346755454474,0.24420801287533,0.347522558529376
287,1710359571.3107,1.89939713478088,-16.876,-0.417,9.798,-0.0952,0.2238,0.2315,-0.108,-1.254,-10.03,0.047069,0.031417,0.107325,-0.0116634675545447,0.25330801287533,0.338322558529376
288,1710359571.33574,1.92444467544556,-16.681,-0.394,9.806,-0.0935,0.2148,0.2361,-0.16,-1.748,-10.104,-0.002727,0.051044,0.121662,-0.00996346755454473,0.24430801287533,0.342922558529376
289,1710359571.3607,1.94940423965454,-16.504,-0.3,9.805,-0.0935,0.2188,0.2349,-0.08,-1.669,-10.104,0.002619,0.120823,0.108958,-0.00996346755454473,0.24830801287533,0.341722558529376
290,1710359571.3857,1.97440600395203,-16.328,-0.194,9.798,-0.0935,0.2138,0.2339,0.001,-1.361,-10.072,0.017751,0.092052,0.129348,-0.00996346755454473,0.24330801287533,0.340722558529376
291,1710359571.41068,1.99938535690308,-16.114,-0.077,9.797,-0.0925,0.2178,0.2339,-0.059,-1.667,-9.811,-0.031217,0.09634,0.113551,-0.00896346755454473,0.24730801287533,0.340722558529376
292,1710359571.43571,2.02441430091858,-15.906,0.032,9.768,-0.0944,0.2198,0.2305,-0.002,-1.53,-9.799,-0.003602,0.10175,0.14311,-0.0108634675545447,0.24930801287533,0.337322558529376
293,1710359571.46076,2.04946351051331,-15.664,0.089,9.751,-0.0926,0.2168,0.235,0.036,-1.641,-10.047,0.001376,0.065124,0.164326,-0.00906346755454474,0.24630801287533,0.341822558529376
294,1710359571.48573,2.0744321346283,-15.411,0.162,9.778,-0.0908,0.2108,0.2341,-0.002,-1.959,-10.127,0.009818,0.091782,0.154726,-0.00726346755454474,0.24030801287533,0.340922558529376
295,1710359571.51065,2.09934687614441,-15.203,0.311,9.789,-0.0916,0.2158,0.2351,0.037,-1.77,-9.844,0.012784,0.142103,0.11315,-0.00806346755454473,0.24530801287533,0.341922558529376
296,1710359571.53644,2.12514281272888,-14.969,0.442,9.732,-0.0926,0.2138,0.2317,0.042,-1.758,-9.683,-0.028544,0.104487,0.150357,-0.00906346755454474,0.24330801287533,0.338522558529376
297,1710359571.5606,2.14929842948914,-14.747,0.518,9.736,-0.0917,0.2148,0.2307,-0.005,-1.61,-9.614,0.002712,0.062271,0.14217,-0.00816346755454474,0.24430801287533,0.337522558529376
298,1710359571.5864,2.17510271072388,-14.504,0.572,9.755,-0.0934,0.2218,0.236,0.069,-1.283,-9.642,0.016915,0.063871,0.185882,-0.00986346755454473,0.25130801287533,0.342822558529376
299,1710359571.61057,2.19926834106445,-14.127,0.582,9.749,-0.0907,0.2167,0.2329,0.052,-1.174,-9.832,-0.029362,0.056454,0.306008,-0.00716346755454474,0.24620801287533,0.339722558529376
300,1710359571.63643,2.22513341903687,-13.622,0.572,9.715,-0.088,0.2147,0.2353,-0.034,-1.812,-9.897,-0.001596,0.046127,0.334093,-0.00446346755454473,0.24420801287533,0.342122558529376
301,1710359571.66078,2.24947762489319,-13.189,0.557,9.747,-0.0861,0.2146,0.2376,0.03,-1.699,-9.815,0.046392,0.044339,0.276203,-0.00256346755454473,0.24410801287533,0.344422558529376
302,1710359571.68636,2.27506494522095,-12.803,0.552,9.8,-0.087,0.2147,0.2343,0.036,-1.87,-9.615,0.035357,0.03517,0.249419,-0.00346346755454473,0.24420801287533,0.341122558529376
303,1710359571.71266,2.30136394500732,-12.524,0.535,9.854,-0.0843,0.2097,0.2356,0.022,-1.656,-9.819,0.015168,0.023643,0.172336,-0.000763467554544733,0.23920801287533,0.342422558529376
304,1710359571.73678,2.32547879219055,-12.264,0.518,9.836,-0.0841,0.2255,0.2332,-0.006,-1.656,-9.826,-0.033228,0.015923,0.184256,-0.000563467554544728,0.25500801287533,0.340022558529376
305,1710359571.76124,2.34994459152222,-12.028,0.483,9.797,-0.0815,0.2126,0.2369,0.016,-1.506,-9.875,-0.02231,0.002618,0.17026,0.00203653244545526,0.24210801287533,0.343722558529376
306,1710359571.78631,2.37501120567322,-11.814,0.427,9.797,-0.0795,0.2244,0.2335,-0.01,-1.785,-9.85,0.011269,-0.028072,0.128159,0.00403653244545527,0.25390801287533,0.340322558529376
307,1710359571.81121,2.39991044998169,-11.647,0.354,9.825,-0.0814,0.2185,0.2324,0.051,-1.626,-10.188,0.020841,-0.020433,0.12001,0.00213653244545527,0.24800801287533,0.339222558529376
308,1710359571.83618,2.42488598823547,-11.481,0.344,9.864,-0.0805,0.2165,0.2347,0.2,-1.523,-10.286,0.029249,0.045817,0.120948,0.00303653244545526,0.24600801287533,0.341522558529376
309,1710359571.86116,2.44986295700073,-11.291,0.405,9.891,-0.0823,0.2225,0.2345,0.116,-1.644,-9.881,0.017897,0.068367,0.120178,0.00123653244545527,0.25200801287533,0.341322558529376
310,1710359571.88616,2.47486543655396,-11.123,0.439,9.891,-0.0796,0.2175,0.2336,0.019,-1.735,-9.59,0.006901,0.027534,0.102128,0.00393653244545526,0.24700801287533,0.340422558529376
311,1710359571.91121,2.49991202354431,-10.961,0.428,9.888,-0.0804,0.2224,0.2324,0.005,-1.513,-9.562,-0.025109,-0.005062,0.132888,0.00313653244545527,0.25190801287533,0.339222558529376
312,1710359571.93615,2.52485179901123,-10.784,0.378,9.881,-0.0786,0.2194,0.2326,-0.072,-1.828,-9.762,0.011114,-0.014321,0.10823,0.00493653244545526,0.24890801287533,0.339422558529376
313,1710359571.96138,2.55007934570312,-10.636,0.327,9.876,-0.0787,0.2145,0.2293,-0.021,-1.767,-10.217,-0.007784,0.007878,0.108277,0.00483653244545526,0.24400801287533,0.336122558529376
314,1710359571.98609,2.57479333877563,-10.487,0.362,9.861,-0.0768,0.2194,0.236,0.082,-1.618,-9.815,-0.037376,0.049518,0.101754,0.00673653244545527,0.24890801287533,0.342822558529376
315,1710359572.01136,2.60006618499756,-10.351,0.385,9.804,-0.0759,0.2144,0.2339,0.136,-1.419,-9.886,-0.028887,0.023066,0.090068,0.00763653244545527,0.24390801287533,0.340722558529376
316,1710359572.03611,2.62481427192688,-10.178,0.38,9.733,-0.0751,0.2114,0.2362,0.244,-1.187,-10.186,-0.039781,0.024946,0.135199,0.00843653244545527,0.24090801287533,0.343022558529376
317,1710359572.06124,2.64994430541992,-9.883,0.396,9.641,-0.0767,0.2223,0.2316,0.186,-1.426,-10.13,-0.061407,0.059579,0.222906,0.00683653244545526,0.25180801287533,0.338422558529376
318,1710359572.08608,2.67477798461914,-9.537,0.443,9.555,-0.0731,0.2193,0.2362,0.191,-1.701,-10.029,-0.043347,0.076704,0.23492,0.0104365324454553,0.24880801287533,0.343022558529376
319,1710359572.11101,2.69971299171448,-9.136,0.482,9.475,-0.0712,0.2232,0.2363,0.293,-0.91,-9.879,-0.08316,0.058857,0.33241,0.0123365324454553,0.25270801287533,0.343122558529376
320,1710359572.13616,2.72486066818237,-8.454,0.496,9.384,-0.0694,0.2162,0.2365,0.138,-1.183,-9.979,-0.039507,0.109371,0.529475,0.0141365324454553,0.24570801287533,0.343322558529376
321,1710359572.16097,2.74967050552368,-7.694,0.498,9.453,-0.0704,0.2113,0.2332,0.085,-1.543,-9.944,0.108441,0.080977,0.51386,0.0131365324454553,0.24080801287533,0.340022558529376
322,1710359572.18596,2.77465867996216,-6.906,0.52,9.57,-0.0656,0.2231,0.2322,0.287,-1.321,-10.39,0.053498,0.141916,0.554274,0.0179365324454553,0.25260801287533,0.339022558529376
323,1710359572.21284,2.80154585838318,-5.881,0.663,9.697,-0.0639,0.2141,0.2358,0.641,0.659,-11.15,0.15004,0.27792,0.873332,0.0196365324454553,0.24360801287533,0.342622558529376
324,1710359572.2359,2.82459926605225,-4.204,1.016,9.96,-0.0593,0.213,0.2372,0.299,-1.319,-10.944,0.201114,0.553534,1.169574,0.0242365324454553,0.24250801287533,0.344022558529376
325,1710359572.26085,2.84954929351807,-2.479,1.646,10.327,-0.0574,0.2149,0.2318,0.313,-2.049,-11.138,0.293449,0.746411,1.043661,0.0261365324454553,0.24440801287533,0.338622558529376
326,1710359572.28593,2.87462854385376,-0.745,2.563,10.811,-0.0592,0.218,0.236,0.889,-1.065,-10.064,0.224423,0.876336,1.128528,0.0243365324454553,0.24750801287533,0.342822558529376
327,1710359572.31114,2.89984226226807,1.299,3.527,11.362,-0.0592,0.2199,0.2305,0.848,-0.542,-10.482,0.412902,1.004218,1.360666,0.0243365324454553,0.24940801287533,0.337322558529376
328,1710359572.33589,2.92458939552307,3.488,4.516,12.302,-0.0571,0.2318,0.2272,0.397,-2.591,-10.796,0.713198,1.011443,1.219636,0.0264365324454553,0.26130801287533,0.334022558529376
329,1710359572.36078,2.94948577880859,5.32,5.392,13.65,-0.0571,0.2308,0.2239,0.353,-2.253,-9.277,0.962743,0.777578,0.978237,0.0264365324454553,0.26030801287533,0.330722558529376
330,1710359572.38593,2.9746298789978,6.642,5.776,14.971,-0.0561,0.2387,0.2195,0.759,-2.349,-7.951,0.795638,0.118487,0.829394,0.0274365324454553,0.26820801287533,0.326322558529376
331,1710359572.41101,2.99970722198486,7.588,5.64,16.23,-0.0495,0.2415,0.21,0.788,-2.946,-9.323,0.856854,-0.075188,0.68541,0.0340365324454553,0.27100801287533,0.316822558529376
332,1710359572.43578,3.02447700500488,8.364,5.447,17.187,-0.0466,0.2543,0.2078,0.553,-2.389,-8.227,0.556064,-0.116428,0.54725,0.0369365324454553,0.28380801287533,0.314622558529376
333,1710359572.46088,3.04957675933838,9.064,4.958,17.888,-0.0438,0.2552,0.208,0.212,-3.086,-8.821,0.367447,-0.206545,0.574976,0.0397365324454553,0.28470801287533,0.314822558529376
334,1710359572.48575,3.07445430755615,9.771,4.524,18.277,-0.0364,0.2501,0.203,-0.085,-3.744,-9.735,0.139423,-0.04146,0.51476,0.0471365324454553,0.27960801287533,0.309822558529376
335,1710359572.51098,3.09967756271362,10.299,4.346,18.393,-0.0336,0.255,0.2032,0.053,-4.149,-9.126,0.007707,-0.029635,0.283392,0.0499365324454553,0.28450801287533,0.310022558529376
336,1710359572.53592,3.12462186813354,10.593,4.199,18.259,-0.0335,0.257,0.1988,0.585,-2.579,-9.163,-0.196791,-0.007301,0.2859,0.0500365324454553,0.28650801287533,0.305622558529376
337,1710359572.56108,3.14977836608887,10.903,3.96,18.034,-0.0337,0.249,0.2087,0.286,-3.743,-8.486,-0.170077,-0.132691,0.170937,0.0498365324454553,0.27850801287533,0.315522558529376
338,1710359572.58581,3.17451429367065,10.843,3.6,17.795,-0.03,0.2499,0.2068,0.281,-3.613,-10.005,-0.149172,-0.233689,-0.061301,0.0535365324454553,0.27940801287533,0.313622558529376
339,1710359572.6108,3.19950127601624,10.624,3.331,17.504,-0.0291,0.2479,0.2079,0.386,-3.656,-9.479,-0.230076,-0.226916,-0.114858,0.0544365324454553,0.27740801287533,0.314722558529376
340,1710359572.63647,3.22516942024231,10.338,2.96,17.128,-0.0263,0.2459,0.2092,0.215,-3.623,-8.655,-0.284518,-0.386781,-0.100672,0.0572365324454553,0.27540801287533,0.316022558529376
341,1710359572.66097,3.24967336654663,9.99,2.399,16.806,-0.0217,0.2428,0.2074,0.476,-2.288,-9.84,-0.197289,-0.408797,-0.068658,0.0618365324454553,0.27230801287533,0.314222558529376
342,1710359572.68651,3.27521300315857,9.947,2.015,16.416,-0.0226,0.2458,0.2139,0.428,-2.65,-9.51,-0.324507,-0.175513,0.117915,0.0609365324454553,0.27530801287533,0.320722558529376
343,1710359572.71056,3.29925847053528,9.931,1.764,15.841,-0.0191,0.2368,0.2142,0.01,-3.903,-8.489,-0.406272,-0.239463,-0.060897,0.0644365324454553,0.26630801287533,0.321022558529376
344,1710359572.73708,3.32578277587891,9.604,1.396,15.311,-0.0181,0.2407,0.2175,0.199,-2.856,-8.76,-0.374451,-0.339267,-0.142999,0.0654365324454553,0.27020801287533,0.324322558529376
345,1710359572.76141,3.35011124610901,9.278,0.88,14.812,-0.0173,0.2318,0.2177,0.166,-2.631,-9.306,-0.286121,-0.429824,-0.09405,0.0662365324454553,0.26130801287533,0.324522558529376
346,1710359572.78634,3.37504410743713,9.07,0.346,14.489,-0.0135,0.2376,0.2178,0.001,-3.067,-9.868,-0.199315,-0.354064,-0.039111,0.0700365324454553,0.26710801287533,0.324622558529376
347,1710359572.81049,3.39919447898865,8.921,-0.068,14.28,-0.0099,0.2346,0.217,0.164,-2.444,-9.931,-0.133998,-0.275023,0.007806,0.0736365324454553,0.26410801287533,0.323822558529376
348,1710359572.83661,3.42530727386475,8.903,-0.45,14.092,-0.0081,0.2266,0.2216,0.249,-2.679,-9.949,-0.097956,-0.258936,0.075612,0.0754365324454553,0.25610801287533,0.328422558529376
349,1710359572.86046,3.44916033744812,8.975,-0.824,14.051,-0.0035,0.2275,0.2186,0.194,-2.445,-10.053,-0.005971,-0.232062,0.148909,0.0800365324454553,0.25700801287533,0.325422558529376
350,1710359572.88657,3.47526669502258,9.155,-1.131,14.103,-0.0044,0.2275,0.2119,0.128,-2.722,-10.169,0.06822,-0.149505,0.166036,0.0791365324454553,0.25700801287533,0.318722558529376
351,1710359572.9113,3.50000143051147,9.422,-1.37,14.235,0.0013,0.2373,0.2177,0.045,-2.077,-10.172,0.096464,-0.101643,0.264453,0.0848365324454553,0.26680801287533,0.324522558529376
352,1710359572.93739,3.52609443664551,9.783,-1.606,14.368,0.0012,0.2294,0.2156,-0.296,-2.224,-10.249,0.073356,-0.095674,0.29193,0.0847365324454553,0.25890801287533,0.322422558529376
353,1710359572.9616,3.550297498703,10.082,-1.753,14.41,0.0058,0.2283,0.217,-0.469,-2.293,-10.438,0.019232,-0.039801,0.18076,0.0893365324454553,0.25780801287533,0.323822558529376
354,1710359572.98626,3.57496190071106,10.214,-1.775,14.363,0.0059,0.2332,0.2169,-0.764,-3.164,-10.197,-0.04273,0.011556,-0.016038,0.0894365324454553,0.26270801287533,0.323722558529376
355,1710359573.01122,3.59991908073425,10.033,-1.705,14.335,0.0077,0.2322,0.2181,-0.348,-2.11,-9.617,-0.012138,-0.003984,-0.17216,0.0912365324454553,0.26170801287533,0.324922558529376
356,1710359573.03618,3.62488532066345,9.869,-1.707,14.375,0.0021,0.2303,0.2101,0.262,-1.132,-9.368,0.029389,-0.057725,-0.027431,0.0856365324454553,0.25980801287533,0.316922558529376
357,1710359573.06119,3.64988875389099,10.012,-1.824,14.339,0.0049,0.2293,0.2158,-0.075,-2.591,-9.768,-0.069347,-0.054343,0.164145,0.0884365324454553,0.25880801287533,0.322622558529376
358,1710359573.08614,3.6748411655426,10.105,-1.851,14.26,0.0058,0.2273,0.2192,-0.305,-3.414,-10.299,-0.035139,0.045184,-0.00119,0.0893365324454553,0.25680801287533,0.326022558529376
359,1710359573.1111,3.69980478286743,9.997,-1.677,14.217,0.0058,0.2322,0.2202,-0.164,-2.834,-9.601,-0.028248,0.109005,-0.163934,0.0893365324454553,0.26170801287533,0.327022558529376
360,1710359573.13614,3.72484564781189,9.879,-1.504,14.177,0.003,0.2293,0.2179,0.266,-1.992,-9.257,-0.034497,0.071425,-0.055625,0.0865365324454553,0.25880801287533,0.324722558529376
361,1710359573.1611,3.74979972839355,9.96,-1.406,14.158,0.003,0.2264,0.2179,-0.098,-2.65,-9.757,0.00225,0.079362,0.059351,0.0865365324454553,0.25590801287533,0.324722558529376
362,1710359573.18612,3.77482151985168,9.989,-1.326,14.212,0.0031,0.2363,0.2156,-0.48,-3.7,-10.444,0.017886,0.07624,-0.071288,0.0866365324454553,0.26580801287533,0.322422558529376
363,1710359573.21134,3.80004096031189,9.767,-1.013,14.211,-0.0007,0.2304,0.2176,-0.288,-3.113,-10.284,-0.015844,0.221229,-0.260764,0.0828365324454553,0.25990801287533,0.324422558529376
364,1710359573.23607,3.82476902008057,9.521,-0.654,14.172,-0.0044,0.2285,0.2218,0.082,-2.223,-10.062,-0.017272,0.175124,-0.182732,0.0791365324454553,0.25800801287533,0.328622558529376
365,1710359573.2614,3.85010266304016,9.434,-0.404,14.208,-0.0043,0.2345,0.2206,0.195,-2.092,-10.254,0.052524,0.151553,-0.063632,0.0792365324454553,0.26400801287533,0.327422558529376
366,1710359573.28647,3.87516975402832,9.459,-0.098,14.271,-0.008,0.2345,0.2182,0.111,-1.997,-10.07,0.024212,0.266758,-0.026878,0.0755365324454553,0.26400801287533,0.325022558529376
367,1710359573.31097,3.89967012405396,9.555,0.322,14.254,-0.0098,0.2376,0.2181,0.226,-1.608,-9.261,-0.039757,0.307566,0.02703,0.0737365324454553,0.26710801287533,0.324922558529376
368,1710359573.33595,3.92464756965637,9.761,0.687,14.145,-0.0109,0.2297,0.2214,0.153,-2.228,-8.694,-0.067408,0.25251,0.096202,0.0726365324454553,0.25920801287533,0.328222558529376
369,1710359573.36093,3.94963312149048,9.967,0.858,14.116,-0.0127,0.2307,0.2223,-0.016,-2.352,-8.791,-0.007709,0.090462,0.112337,0.0708365324454553,0.26020801287533,0.329122558529376
370,1710359573.3871,3.97580409049988,10.114,0.871,14.139,-0.0117,0.2356,0.2191,-0.037,-2.321,-9.47,-0.004003,0.019064,0.097148,0.0718365324454553,0.26510801287533,0.325922558529376
371,1710359573.41097,3.99967169761658,10.192,0.904,14.063,-0.0108,0.2307,0.217,-0.177,-2.784,-9.934,-0.090105,0.052569,0.01133,0.0727365324454553,0.26020801287533,0.323822558529376
372,1710359573.43594,4.0246365070343,10.286,1.052,13.884,-0.0107,0.2376,0.2202,-0.054,-2.253,-10.397,-0.164539,0.178332,0.080891,0.0728365324454553,0.26710801287533,0.327022558529376
373,1710359573.46108,4.0497841835022,10.44,1.398,13.547,-0.0128,0.2277,0.2224,0.213,-2.283,-10.241,-0.282088,0.310121,0.034115,0.0707365324454553,0.25720801287533,0.329222558529376
374,1710359573.48593,4.07462692260742,10.583,1.799,13.168,-0.0165,0.2219,0.22,0.295,-2.757,-9.496,-0.220689,0.22859,0.002863,0.0670365324454553,0.25140801287533,0.326822558529376
375,1710359573.5112,4.09989809989929,10.587,2.036,12.976,-0.0175,0.2229,0.2254,0.473,-2.111,-9.463,-0.10041,0.117648,-0.040904,0.0660365324454553,0.25240801287533,0.332222558529376
376,1710359573.5408,4.12950444221497,10.592,2.227,12.777,-0.0184,0.2239,0.2232,0.294,-2.704,-10.394,-0.173772,0.163338,-0.056173,0.0651365324454553,0.25340801287533,0.330022558529376
377,1710359573.5608,4.14950513839722,10.474,2.659,12.428,-0.0212,0.22,0.2274,0.244,-2.269,-10.576,-0.26429,0.323742,-0.199891,0.0623365324454553,0.24950801287533,0.334222558529376
378,1710359573.588,4.17670154571533,10.373,3.27,11.98,-0.0258,0.2241,0.2304,0.381,-1.668,-10.342,-0.323479,0.4518,-0.150433,0.0577365324454553,0.25360801287533,0.337222558529376
379,1710359573.61114,4.19984149932861,10.339,3.943,11.386,-0.0306,0.2103,0.2346,0.628,-1.412,-8.979,-0.46937,0.38491,-0.137552,0.0529365324454553,0.23980801287533,0.341422558529376
380,1710359573.6362,4.22490525245667,10.385,4.372,10.769,-0.0353,0.2104,0.2332,0.935,-1.299,-8.668,-0.373957,0.225302,0.057483,0.0482365324454553,0.23990801287533,0.340022558529376
381,1710359573.66105,4.24975442886353,10.455,4.462,10.338,-0.0352,0.2144,0.242,0.847,-1.554,-9.262,-0.282195,-0.006264,0.013696,0.0483365324454553,0.24390801287533,0.348822558529376
382,1710359573.68575,4.27444863319397,10.569,4.411,9.934,-0.0326,0.2034,0.239,0.842,-1.481,-10.149,-0.296205,-0.000777,0.119279,0.0509365324454553,0.23290801287533,0.345822558529376
383,1710359573.71086,4.29956412315369,10.685,4.544,9.405,-0.0355,0.1966,0.2466,0.849,-2.018,-10.959,-0.449074,0.219485,-0.002393,0.0480365324454553,0.22610801287533,0.353422558529376
384,1710359573.73574,4.3244423866272,10.729,5.061,8.696,-0.0372,0.2045,0.2474,1.173,-1.487,-10.181,-0.508101,0.409131,-0.028953,0.0463365324454553,0.23400801287533,0.354222558529376
385,1710359573.76107,4.34977173805237,10.785,5.558,8.063,-0.042,0.1947,0.244,1.244,-1.31,-9.181,-0.381078,0.261833,0.009969,0.0415365324454553,0.22420801287533,0.350822558529376
386,1710359573.78572,4.37442064285278,10.904,5.75,7.721,-0.0411,0.1927,0.2506,1.065,-1.617,-9.409,-0.143958,0.087452,0.093456,0.0424365324454553,0.22220801287533,0.357422558529376
387,1710359573.81068,4.39938521385193,10.95,5.725,7.673,-0.043,0.1908,0.2516,0.664,-1.975,-9.41,-0.004115,-0.068814,-0.031905,0.0405365324454553,0.22030801287533,0.358422558529376
388,1710359573.83573,4.4244270324707,10.816,5.622,7.573,-0.0384,0.1897,0.253,0.464,-1.709,-9.662,-0.092177,-0.102737,-0.127866,0.0451365324454553,0.21920801287533,0.359822558529376
389,1710359573.86061,4.44930744171143,10.493,5.521,7.195,-0.0412,0.1908,0.2539,0.16,-2.268,-8.713,-0.403871,-0.083071,-0.300188,0.0423365324454553,0.22030801287533,0.360722558529376
390,1710359573.88644,4.47513914108276,9.713,5.164,6.261,-0.0431,0.1878,0.255,1.003,-0.47,-9.973,-0.582885,-0.398362,-0.49593,0.0404365324454553,0.21730801287533,0.361822558529376
391,1710359573.91055,4.49925398826599,8.991,4.69,5.597,-0.0423,0.1789,0.2562,0.991,-0.528,-10.458,-0.33587,-0.343095,-0.461266,0.0412365324454553,0.20840801287533,0.363022558529376
392,1710359573.93648,4.5251772403717,8.367,4.399,5.045,-0.0414,0.1749,0.2618,0.848,-0.752,-10.134,-0.415255,-0.165417,-0.410382,0.0421365324454553,0.20440801287533,0.368622558529376
393,1710359573.96049,4.54919242858887,7.773,4.128,4.402,-0.0424,0.1729,0.2651,1.012,0.775,-10.016,-0.408052,-0.207778,-0.276879,0.0411365324454553,0.20240801287533,0.371922558529376
394,1710359573.98638,4.5750789642334,7.417,3.716,3.581,-0.0388,0.1659,0.2654,0.595,-1.154,-9.293,-0.704594,-0.401095,-0.324721,0.0447365324454553,0.19540801287533,0.372222558529376
395,1710359574.01134,4.60004234313965,6.895,3.216,2.715,-0.037,0.1629,0.2666,0.55,-0.887,-10.203,-0.48707,-0.322245,-0.331242,0.0465365324454553,0.19240801287533,0.373422558529376
396,1710359574.03633,4.62503123283386,6.491,2.752,2.267,-0.0351,0.1629,0.2667,0.497,1.046,-10.416,-0.219241,-0.292438,-0.147947,0.0484365324454553,0.19240801287533,0.373522558529376
397,1710359574.06149,4.6501932144165,6.412,2.459,2.02,-0.0333,0.1648,0.2646,0.134,-1.102,-10.694,-0.117277,-0.139792,-0.089421,0.0502365324454553,0.19430801287533,0.371422558529376
398,1710359574.08626,4.67495846748352,6.207,2.384,1.908,-0.0323,0.1668,0.2691,0.253,-0.294,-10.344,-0.070463,-0.015541,-0.14553,0.0512365324454553,0.19630801287533,0.375922558529376
399,1710359574.11123,4.69993305206299,6.021,2.47,1.804,-0.0353,0.1549,0.2668,0.345,0.225,-10.078,-0.052078,0.102816,-0.093291,0.0482365324454553,0.18440801287533,0.373622558529376
400,1710359574.13626,4.72496557235718,5.941,2.591,1.671,-0.0352,0.1569,0.2668,0.415,-0.274,-9.555,-0.09499,0.062867,-0.049605,0.0483365324454553,0.18640801287533,0.373622558529376
401,1710359574.16142,4.75011873245239,5.864,2.569,1.606,-0.0361,0.1589,0.2689,0.287,-0.631,-9.571,-0.000359,-0.070867,-0.075745,0.0474365324454553,0.18840801287533,0.375722558529376
402,1710359574.18624,4.77494502067566,5.685,2.489,1.645,-0.0371,0.155,0.2689,0.28,-0.206,-10.262,0.027587,-0.025479,-0.150335,0.0464365324454553,0.18450801287533,0.375722558529376
403,1710359574.21149,4.80019497871399,5.484,2.441,1.723,-0.0381,0.153,0.2645,0.43,0.103,-10.1,0.121123,-0.036193,-0.115604,0.0454365324454553,0.18250801287533,0.371322558529376
404,1710359574.23616,4.82486581802368,5.33,2.384,2.064,-0.036,0.1678,0.2644,0.665,-0.309,-10.223,0.265415,-0.009229,-0.094181,0.0475365324454553,0.19730801287533,0.371222558529376
405,1710359574.26146,4.85016083717346,5.225,2.391,2.408,-0.037,0.1639,0.2644,0.634,0.169,-10.095,0.250299,-0.009556,-0.022965,0.0465365324454553,0.19340801287533,0.371222558529376
406,1710359574.28614,4.87484264373779,5.308,2.421,2.7,-0.0361,0.1619,0.2656,0.482,-0.042,-10.118,0.10891,0.042449,0.126672,0.0474365324454553,0.19140801287533,0.372422558529376
407,1710359574.31113,4.89983153343201,5.432,2.444,2.913,-0.036,0.1639,0.2601,0.279,-1.144,-10.056,0.19709,0.023466,0.034961,0.0475365324454553,0.19340801287533,0.366922558529376
408,1710359574.33616,4.92486500740051,5.387,2.396,3.283,-0.0332,0.1678,0.2657,0.362,-0.313,-9.669,0.279452,-0.062156,-0.050951,0.0503365324454553,0.19730801287533,0.372522558529376
409,1710359574.36128,4.94998168945312,5.374,2.277,3.554,-0.0359,0.1708,0.2633,0.409,-0.515,-9.777,0.131745,-0.085295,0.010132,0.0476365324454553,0.20030801287533,0.370122558529376
410,1710359574.38609,4.97479462623596,5.354,2.174,3.653,-0.0341,0.1718,0.2601,0.274,-1.029,-9.557,0.045794,-0.080725,-0.033893,0.0494365324454553,0.20130801287533,0.366922558529376
411,1710359574.41107,4.99976706504822,5.219,2.031,3.684,-0.035,0.1728,0.2589,0.257,-1.086,-10.077,0.010363,-0.109368,-0.121857,0.0485365324454553,0.20230801287533,0.365722558529376
412,1710359574.43742,5.02611708641052,5.016,1.895,3.712,-0.0359,0.1758,0.2621,0.259,-0.208,-10.374,0.042631,-0.0835,-0.109976,0.0476365324454553,0.20530801287533,0.368922558529376
413,1710359574.46128,5.04998540878296,4.921,1.86,3.701,-0.0332,0.1688,0.2624,0.388,-0.383,-10.35,-0.016528,0.005914,-0.038033,0.0503365324454553,0.19830801287533,0.369222558529376
414,1710359574.48608,5.07478523254395,4.892,1.861,3.683,-0.035,0.1718,0.2579,0.564,-0.511,-9.919,0.005526,-0.025353,-0.002656,0.0485365324454553,0.20130801287533,0.364722558529376
415,1710359574.51148,5.10018563270569,4.86,1.821,3.692,-0.036,0.1688,0.26,0.38,-0.677,-10.099,-0.001373,-0.019239,-0.044266,0.0475365324454553,0.19830801287533,0.366822558529376
416,1710359574.536,5.12469935417175,4.791,1.803,3.646,-0.035,0.1698,0.259,0.372,-0.348,-9.877,-0.035056,-0.01499,-0.03802,0.0485365324454553,0.19930801287533,0.365822558529376
417,1710359574.56126,5.14996194839478,4.745,1.803,3.558,-0.0359,0.1698,0.2611,0.34,-0.45,-10.009,-0.056897,0.02041,-0.033997,0.0476365324454553,0.19930801287533,0.367922558529376
418,1710359574.58598,5.17467784881592,4.769,1.785,3.547,-0.034,0.1757,0.2601,0.41,-0.339,-9.723,0.033902,-0.036684,0.055496,0.0495365324454553,0.20520801287533,0.366922558529376
419,1710359574.6109,5.19960141181946,4.875,1.709,3.607,-0.035,0.1688,0.259,0.289,-0.522,-10.134,0.041421,-0.0421,0.079186,0.0485365324454553,0.19830801287533,0.365822558529376
420,1710359574.63601,5.22470998764038,4.955,1.67,3.658,-0.0321,0.1786,0.2602,0.254,-0.999,-10.043,0.038304,-0.013231,0.024374,0.0514365324454553,0.20810801287533,0.367022558529376
421,1710359574.66118,5.24987888336182,4.964,1.644,3.719,-0.0322,0.1717,0.2613,0.444,-0.165,-10.012,0.046226,-0.010343,0.034059,0.0513365324454553,0.20120801287533,0.368122558529376
422,1710359574.68586,5.27456212043762,5.041,1.633,3.753,-0.035,0.1698,0.2601,0.535,-0.382,-10.392,0.015216,0.008811,0.050492,0.0485365324454553,0.19930801287533,0.366922558529376
423,1710359574.71111,5.29980731010437,5.156,1.678,3.722,-0.0322,0.1747,0.2613,0.549,-0.489,-10.106,-0.0375,0.036413,0.089912,0.0513365324454553,0.20420801287533,0.368122558529376
424,1710359574.73587,5.32457447052002,5.258,1.718,3.678,-0.0322,0.1697,0.2603,0.678,-0.553,-9.758,-0.016022,0.012623,0.054828,0.0513365324454553,0.19920801287533,0.367122558529376
425,1710359574.76085,5.34955453872681,5.334,1.706,3.662,-0.035,0.1708,0.2601,0.801,-0.405,-9.936,-0.013687,-0.022255,0.050579,0.0485365324454553,0.20030801287533,0.366922558529376
426,1710359574.78579,5.37449312210083,5.483,1.688,3.646,-0.0322,0.1737,0.2591,0.739,-0.528,-10.255,-0.014147,0.006103,0.11706,0.0513365324454553,0.20320801287533,0.365922558529376
427,1710359574.81115,5.39985370635986,5.687,1.729,3.635,-0.0303,0.1736,0.2614,0.792,-0.412,-9.849,-0.004532,0.037429,0.149145,0.0532365324454553,0.20310801287533,0.368222558529376
428,1710359574.83593,5.42462778091431,5.911,1.718,3.685,-0.0294,0.1746,0.2571,0.695,-1.058,-9.648,0.040145,-0.039953,0.121553,0.0541365324454553,0.20410801287533,0.363922558529376
429,1710359574.86078,5.4494845867157,6.039,1.606,3.767,-0.0266,0.1736,0.2606,0.824,-0.553,-10.107,0.053753,-0.069292,0.102682,0.0569365324454553,0.20310801287533,0.367422558529376
430,1710359574.88581,5.47451376914978,6.2,1.561,3.827,-0.0284,0.1795,0.2604,0.934,-0.542,-10.388,0.033264,0.033253,0.138793,0.0551365324454553,0.20900801287533,0.367222558529376
431,1710359574.9111,5.4997980594635,6.39,1.655,3.933,-0.0276,0.1716,0.2561,1.178,-0.898,-9.576,0.106674,0.094994,0.128133,0.0559365324454553,0.20110801287533,0.362922558529376
432,1710359574.93585,5.52455115318298,6.549,1.778,4.169,-0.0285,0.1746,0.2593,1.33,-1.334,-9,0.18535,0.090475,0.086825,0.0550365324454553,0.20410801287533,0.366122558529376
433,1710359574.96074,5.54943895339966,6.68,1.818,4.418,-0.0284,0.1776,0.2593,1.401,-0.329,-9.072,0.14877,0.00613,0.139713,0.0551365324454553,0.20710801287533,0.366122558529376
434,1710359574.9858,5.57450270652771,6.961,1.715,4.612,-0.0266,0.1765,0.2616,1.163,-0.01,-9.629,0.103993,-0.104712,0.257286,0.0569365324454553,0.20600801287533,0.368422558529376
435,1710359575.01093,5.59963321685791,7.454,1.519,4.663,-0.0229,0.1754,0.2608,0.473,-1.115,-10.729,-0.010296,-0.089901,0.373476,0.0606365324454553,0.20490801287533,0.367622558529376
436,1710359575.0374,5.62610530853271,7.859,1.372,4.62,-0.0192,0.1744,0.2577,0.258,-1.307,-10.856,-0.053908,-0.078061,0.236084,0.0643365324454553,0.20390801287533,0.364522558529376
437,1710359575.06097,5.64967107772827,8.131,1.261,4.489,-0.0182,0.1793,0.2533,0.493,-1.288,-11.04,-0.117107,-0.040815,0.170057,0.0653365324454553,0.20880801287533,0.360122558529376
438,1710359575.08642,5.67512249946594,8.301,1.243,4.333,-0.0192,0.1744,0.2577,0.926,-0.843,-10.632,-0.106975,0.016552,0.099465,0.0643365324454553,0.20390801287533,0.364522558529376
439,1710359575.11081,5.69950795173645,8.49,1.31,4.242,-0.0202,0.1734,0.2632,1.263,-0.931,-10.017,-0.03672,0.063601,0.125702,0.0633365324454553,0.20290801287533,0.370022558529376
440,1710359575.13646,5.72515797615051,8.672,1.366,4.24,-0.0193,0.1714,0.2643,1.337,-1.034,-9.617,0.001803,0.029602,0.116015,0.0642365324454553,0.20090801287533,0.371122558529376
441,1710359575.16137,5.750075340271,8.838,1.408,4.262,-0.0164,0.1743,0.2557,1.204,-0.797,-9.845,0.02451,0.054651,0.129435,0.0671365324454553,0.20380801287533,0.362522558529376
442,1710359575.18643,5.77513265609741,8.998,1.49,4.301,-0.0165,0.1713,0.2579,0.997,-0.787,-9.59,0.022671,0.072122,0.101703,0.0670365324454553,0.20080801287533,0.364722558529376
443,1710359575.21149,5.80019593238831,9.182,1.58,4.331,-0.0182,0.1813,0.2577,0.916,-1.154,-9.273,0.016309,0.071063,0.113496,0.0653365324454553,0.21080801287533,0.364522558529376
444,1710359575.23636,5.82506132125854,9.379,1.622,4.383,-0.0174,0.1694,0.2623,1.002,-0.71,-8.95,0.027268,0.008362,0.171172,0.0661365324454553,0.19890801287533,0.369122558529376
445,1710359575.26156,5.85025715827942,9.614,1.612,4.389,-0.0155,0.1753,0.2569,0.814,-1.31,-9.009,-0.046894,0.007119,0.140971,0.0680365324454553,0.20480801287533,0.363722558529376
446,1710359575.2863,5.875,9.786,1.57,4.297,-0.0136,0.1792,0.2602,0.834,-0.787,-9.295,-0.070843,-0.038083,0.122259,0.0699365324454553,0.20870801287533,0.367022558529376
447,1710359575.31132,5.90001654624939,9.99,1.461,4.213,-0.0137,0.1723,0.2614,0.887,-0.791,-9.54,-0.052677,-0.088377,0.157182,0.0698365324454553,0.20180801287533,0.368222558529376
448,1710359575.33629,5.9249906539917,10.25,1.281,4.202,-0.0128,0.1712,0.2615,0.731,-1.255,-10.139,0.001608,-0.119168,0.200956,0.0707365324454553,0.20070801287533,0.368322558529376
449,1710359575.3613,5.95000290870667,10.473,1.161,4.169,-0.009,0.1731,0.2606,0.694,-1.191,-10.749,-0.034663,-0.02369,0.160165,0.0745365324454553,0.20260801287533,0.367422558529376
450,1710359575.3907,5.97940349578857,10.66,1.192,4.09,-0.0101,0.1682,0.2617,0.745,-1.081,-10.359,-0.050749,0.043574,0.105977,0.0734365324454553,0.19770801287533,0.368522558529376
451,1710359575.41302,6.00171709060669,10.842,1.229,4.016,-0.0081,0.1741,0.2606,0.847,-1.189,-10.153,-0.044227,0.019636,0.114425,0.0754365324454553,0.20360801287533,0.367422558529376
452,1710359575.4362,6.02489709854126,10.99,1.254,4.008,-0.0099,0.1761,0.2594,0.869,-0.971,-10.177,0.000114,0.02922,0.099261,0.0736365324454553,0.20560801287533,0.366222558529376
453,1710359575.46138,6.05008101463318,11.201,1.29,4.043,-0.01,0.1712,0.2562,0.777,-0.448,-10.075,0.021376,0.034707,0.183713,0.0735365324454553,0.20070801287533,0.363022558529376
454,1710359575.48616,6.07485914230347,11.549,1.256,4.042,-0.0072,0.1701,0.2618,0.256,0.253,-10.227,-0.024224,-0.034873,0.312147,0.0763365324454553,0.19960801287533,0.368622558529376
455,1710359575.51138,6.10008215904236,12.045,1.05,4.028,-0.0045,0.171,0.2631,-0.436,-0.5,-10.613,-0.012154,-0.184662,0.361472,0.0790365324454553,0.20050801287533,0.369922558529376
456,1710359575.53719,6.12589025497437,12.477,0.678,3.995,0.0021,0.1729,0.2558,-0.749,-1.318,-11.939,-0.045288,-0.231778,0.281399,0.0856365324454553,0.20240801287533,0.362622558529376
457,1710359575.56134,6.15004348754883,12.746,0.507,3.809,0.001,0.162,0.2581,-0.627,-1.801,-11.806,-0.20404,-0.021653,0.135971,0.0845365324454553,0.19150801287533,0.364922558529376
458,1710359575.58655,6.17525124549866,12.893,0.595,3.489,0.001,0.162,0.2592,-0.005,-0.801,-10.636,-0.232259,0.129609,0.124486,0.0845365324454553,0.19150801287533,0.366022558529376
459,1710359575.61145,6.20015048980713,13.112,0.728,3.228,0.0037,0.1609,0.255,0.35,-0.628,-9.802,-0.100424,0.062841,0.160559,0.0872365324454553,0.19040801287533,0.361822558529376
460,1710359575.63613,6.2248272895813,13.32,0.798,3.215,0.0009,0.156,0.2592,0.38,-0.175,-10.055,0.041948,0.06398,0.13768,0.0844365324454553,0.18550801287533,0.366022558529376
461,1710359575.66096,6.24965834617615,13.58,0.981,3.302,0.0018,0.158,0.2659,0.415,0.301,-9.65,0.046972,0.177641,0.189251,0.0853365324454553,0.18750801287533,0.372722558529376
462,1710359575.68602,6.27471876144409,13.975,1.323,3.329,-0,0.1581,0.257,0.571,0.596,-9.032,-0.043461,0.299155,0.304139,0.0835365324454553,0.18760801287533,0.363822558529376
463,1710359575.7109,6.29960560798645,14.498,1.645,3.237,-0.0018,0.1611,0.2612,0.417,0.149,-8.139,-0.056472,0.171212,0.374601,0.0817365324454553,0.19060801287533,0.368022558529376
464,1710359575.73599,6.32468867301941,15.005,1.66,3.226,-0.0009,0.1601,0.2657,0.058,-0.831,-8.678,-0.001954,-0.052914,0.314971,0.0826365324454553,0.18960801287533,0.372522558529376
465,1710359575.76146,6.35016322135925,15.355,1.501,3.223,0.0018,0.155,0.2637,0.245,0.288,-10.237,-0.017417,-0.090383,0.242502,0.0853365324454553,0.18450801287533,0.370522558529376
466,1710359575.78598,6.37468147277832,15.822,1.373,3.195,0.0046,0.1579,0.2638,0.268,0.283,-10.79,-0.042763,-0.057277,0.364566,0.0881365324454553,0.18740801287533,0.370622558529376
467,1710359575.81119,6.39989018440247,16.346,1.31,3.16,0.0083,0.1598,0.2619,0.376,-0.708,-11.295,-0.032159,0.022498,0.343098,0.0918365324454553,0.18930801287533,0.368722558529376
468,1710359575.83628,6.42497849464417,16.739,1.386,3.125,0.0092,0.1529,0.2598,0.468,-1.029,-10.378,-0.018655,0.073258,0.220075,0.0927365324454553,0.18240801287533,0.366622558529376
469,1710359575.86115,6.44984936714172,17,1.435,3.16,0.01,0.1479,0.2665,0.701,0.017,-10.329,0.043426,0.041456,0.19711,0.0935365324454553,0.17740801287533,0.373322558529376
470,1710359575.88583,6.47452878952026,17.382,1.551,3.213,0.0073,0.1509,0.263,0.665,-0.746,-9.694,0.023755,0.119017,0.268127,0.0908365324454553,0.18040801287533,0.369822558529376
471,1710359575.91109,6.4997878074646,17.692,1.635,3.261,0.009,0.145,0.2643,0.534,-0.919,-9.073,0.051909,0.020911,0.183887,0.0925365324454553,0.17450801287533,0.371122558529376
472,1710359575.93583,6.52453303337097,17.8,1.566,3.321,0.013,0.1597,0.2621,0.613,-0.689,-9.397,0.036743,-0.072717,0.006553,0.0965365324454553,0.18920801287533,0.368922558529376
473,1710359575.96107,6.54976725578308,17.828,1.479,3.312,0.0101,0.1529,0.2631,0.836,0.058,-9.759,-0.054657,-0.046816,0.023773,0.0936365324454553,0.18240801287533,0.369922558529376
474,1710359575.98581,6.57451391220093,17.958,1.453,3.221,0.011,0.1508,0.2654,1.116,1.002,-9.923,-0.066411,0.015907,0.179498,0.0945365324454553,0.18030801287533,0.372222558529376
475,1710359576.01082,6.59951972961426,18.265,1.452,3.179,0.0101,0.1558,0.2653,0.96,-0.095,-9.644,-0.001384,-0.013392,0.219059,0.0936365324454553,0.18530801287533,0.372122558529376
476,1710359576.03578,6.62448358535767,18.533,1.409,3.262,0.011,0.1508,0.2665,0.782,-0.565,-10.124,0.071909,0.005751,0.168845,0.0945365324454553,0.18030801287533,0.373322558529376
477,1710359576.06103,6.64973497390747,18.721,1.444,3.355,0.0167,0.1596,0.2657,0.827,-0.328,-10.233,0.054767,0.072456,0.136892,0.100236532445455,0.18910801287533,0.372522558529376
478,1710359576.08623,6.67493224143982,18.891,1.614,3.448,0.011,0.1548,0.2632,0.933,-0.504,-9.458,0.067565,0.15235,0.107143,0.0945365324454553,0.18430801287533,0.370022558529376
479,1710359576.11078,6.69947791099548,19.046,1.787,3.547,0.0138,0.1518,0.2656,0.866,-0.631,-9.067,0.082996,0.108049,0.113594,0.0973365324454553,0.18130801287533,0.372422558529376
480,1710359576.13584,6.72454380989075,19.119,1.863,3.709,0.013,0.1627,0.2632,0.592,-1.074,-9.704,0.122967,0.04485,-9.5e-05,0.0965365324454553,0.19220801287533,0.370022558529376
481,1710359576.16102,6.74971985816956,19.06,1.953,3.863,0.0128,0.1518,0.2611,0.526,-0.799,-10.166,0.107253,0.072419,-0.076999,0.0963365324454553,0.18130801287533,0.367922558529376
482,1710359576.18565,6.77435183525085,18.991,2.1,4.004,0.0111,0.1578,0.2631,0.869,0.182,-10.163,0.105834,0.093615,-0.006939,0.0946365324454553,0.18730801287533,0.369922558529376
483,1710359576.21095,6.79964900016785,19.086,2.239,4.189,0.012,0.1607,0.261,0.922,-0.415,-10.563,0.145204,0.103899,0.081911,0.0955365324454553,0.19020801287533,0.367822558529376
484,1710359576.24284,6.831538438797,19.224,2.415,4.439,0.0102,0.1637,0.2608,0.949,-1.203,-9.859,0.17817,0.128127,0.063098,0.0937365324454553,0.19320801287533,0.367622558529376
485,1710359576.26077,6.84947443008423,19.27,2.415,4.701,0.0083,0.1579,0.2542,0.87,-0.8,-9.633,0.184216,-0.102785,0.028774,0.0918365324454553,0.18740801287533,0.361022558529376
486,1710359576.28642,6.87511849403381,19.359,2.111,4.989,0.0102,0.1598,0.2609,0.417,-0.623,-11.235,0.22584,-0.264123,0.136327,0.0937365324454553,0.18930801287533,0.367722558529376
487,1710359576.31053,6.89923214912415,19.578,1.711,5.284,0.0157,0.1596,0.2579,-0.116,-0.501,-12.849,0.159985,-0.219519,0.211179,0.0992365324454553,0.18910801287533,0.364722558529376
488,1710359576.33641,6.9251127243042,19.84,1.585,5.448,0.0168,0.1656,0.2546,-0.463,-1.529,-11.84,0.079369,0.010339,0.144655,0.100336532445455,0.19510801287533,0.361422558529376
489,1710359576.36167,6.95036888122559,19.954,1.644,5.554,0.0195,0.1635,0.2526,-0.456,-1.413,-9.981,0.073798,0.05593,0.046622,0.103036532445455,0.19300801287533,0.359422558529376
490,1710359576.3895,6.97820138931274,19.917,1.633,5.756,0.0168,0.1705,0.2535,-0.355,-1.529,-9.5,0.182774,-0.044508,-0.079255,0.100336532445455,0.20000801287533,0.360322558529376
491,1710359576.41128,6.99998569488525,19.749,1.652,6.05,0.0131,0.1647,0.2511,0.199,-0.438,-9.922,0.202982,0.0597,-0.121314,0.0966365324454553,0.19420801287533,0.357922558529376
492,1710359576.43629,7.02499341964722,19.608,1.909,6.216,0.015,0.1676,0.2512,0.587,-0.176,-8.821,0.073129,0.198229,-0.116076,0.0985365324454553,0.19710801287533,0.358022558529376
493,1710359576.46144,7.05014181137085,19.509,2.063,6.339,0.0112,0.1657,0.251,0.576,-0.41,-8.19,0.118535,0.004764,-0.04384,0.0947365324454553,0.19520801287533,0.357822558529376
494,1710359576.48733,7.07602691650391,19.439,2.05,6.497,0.0122,0.1677,0.251,0.395,-0.544,-9.403,0.098547,0.008275,-0.028334,0.0957365324454553,0.19720801287533,0.357822558529376
495,1710359576.51159,7.1002881526947,19.568,2.137,6.606,0.0122,0.1677,0.2466,-0.08,-0.019,-9.551,0.064948,0.087463,0.160888,0.0957365324454553,0.19720801287533,0.353422558529376
496,1710359576.53627,7.1249692440033,19.943,2.202,6.699,0.0104,0.1707,0.2553,-0.344,-0.572,-10.163,0.043711,0.079101,0.304147,0.0939365324454553,0.20020801287533,0.362122558529376
497,1710359576.56157,7.15026903152466,20.44,2.235,6.717,0.0141,0.1726,0.2533,-0.444,-1.507,-9.597,-0.031047,0.03227,0.335996,0.0976365324454553,0.20210801287533,0.360122558529376
498,1710359576.5862,7.1748993396759,20.841,2.116,6.647,0.0159,0.1676,0.2557,-0.305,-1.633,-10.133,-0.079067,-0.088777,0.241694,0.0994365324454553,0.19710801287533,0.362522558529376
499,1710359576.61112,7.19982218742371,21.194,1.935,6.527,0.0169,0.1725,0.2535,-0.203,-1.551,-11.295,-0.108156,-0.078405,0.258003,0.100436532445455,0.20200801287533,0.360322558529376
500,1710359576.6361,7.22480463981628,21.537,1.942,6.362,0.0177,0.1665,0.2503,-0.161,-2.057,-11.497,-0.153242,0.116039,0.190635,0.101236532445455,0.19600801287533,0.357122558529376
501,1710359576.66108,7.24977993965149,21.758,2.218,6.135,0.0167,0.1616,0.2558,0.307,-1.138,-10.25,-0.166671,0.246208,0.115662,0.100236532445455,0.19110801287533,0.362622558529376
502,1710359576.68609,7.27479076385498,21.959,2.533,5.967,0.0149,0.1626,0.2578,0.671,-1.017,-8.739,-0.086354,0.190777,0.095929,0.0984365324454553,0.19210801287533,0.364622558529376
503,1710359576.71102,7.29972410202026,22.195,2.629,5.973,0.013,0.1627,0.2533,0.758,-0.749,-8.701,0.051192,0.026506,0.202902,0.0965365324454553,0.19220801287533,0.360122558529376
504,1710359576.73607,7.32476711273193,22.521,2.612,6.082,0.0159,0.1696,0.2556,0.574,-1.053,-9.064,0.073358,0.015246,0.238422,0.0994365324454553,0.19910801287533,0.362422558529376
505,1710359576.76103,7.34973478317261,22.819,2.598,6.169,0.0186,0.1655,0.2613,0.564,-1.159,-9.027,0.039612,0.012048,0.193935,0.102136532445455,0.19500801287533,0.368122558529376
506,1710359576.7861,7.37480020523071,23.098,2.526,6.204,0.0167,0.1596,0.258,0.509,-1.056,-9.101,0.002578,-0.058993,0.200475,0.100236532445455,0.18910801287533,0.364822558529376
507,1710359576.81131,7.40001606941223,23.422,2.382,6.186,0.0167,0.1606,0.2602,0.361,-1.296,-9.403,-0.034254,-0.077532,0.259758,0.100236532445455,0.19010801287533,0.367022558529376
508,1710359576.83784,7.42654585838318,23.766,2.233,6.129,0.0185,0.1556,0.256,0.325,-1.669,-9.671,-0.056637,-0.065113,0.234511,0.102036532445455,0.18510801287533,0.362822558529376
509,1710359576.86095,7.44964694976807,24.082,2.078,6.063,0.0221,0.1545,0.2562,0.527,-1.58,-10.291,-0.050943,-0.084674,0.220832,0.105636532445455,0.18400801287533,0.363022558529376
510,1710359576.8883,7.47700643539429,24.368,1.989,6.005,0.025,0.1584,0.2542,0.902,-1.105,-10.334,-0.060096,-0.015168,0.204479,0.108536532445455,0.18790801287533,0.361022558529376
511,1710359576.91137,7.50007224082947,24.696,2.014,5.89,0.0268,0.1554,0.2576,1.053,-1.007,-10.32,-0.10223,0.062513,0.236431,0.110336532445455,0.18490801287533,0.364422558529376
512,1710359576.93596,7.52466487884521,25.09,2.102,5.764,0.025,0.1594,0.2563,0.996,-0.831,-10.203,-0.076291,0.091586,0.28829,0.108536532445455,0.18890801287533,0.363122558529376
513,1710359576.96129,7.5499906539917,25.54,2.209,5.692,0.0267,0.1524,0.2598,0.925,-1.059,-10.148,-0.06488,0.110912,0.303833,0.110236532445455,0.18190801287533,0.366622558529376
514,1710359576.98865,7.5773503780365,25.99,2.312,5.627,0.0258,0.1515,0.2554,0.717,-1.741,-9.919,-0.050726,0.092833,0.280038,0.109336532445455,0.18100801287533,0.362222558529376
515,1710359577.01079,7.59949135780334,26.289,2.402,5.571,0.0276,0.1504,0.2577,0.954,-1.174,-9.937,-0.049143,0.07992,0.183413,0.111136532445455,0.17990801287533,0.364522558529376
516,1710359577.03601,7.62471437454224,26.682,2.472,5.461,0.0276,0.1514,0.2621,1.125,-0.689,-9.795,-0.108962,0.065616,0.335921,0.111136532445455,0.18090801287533,0.368922558529376
517,1710359577.06115,7.64984703063965,27.187,2.346,5.369,0.0286,0.1514,0.2621,0.429,-1.015,-10.057,-0.049782,-0.147109,0.360778,0.112136532445455,0.18090801287533,0.368922558529376
518,1710359577.0858,7.67449927330017,27.754,1.969,5.395,0.0305,0.1533,0.2557,-0.168,-0.906,-11.575,0.025284,-0.241294,0.44805,0.114036532445455,0.18280801287533,0.362522558529376
519,1710359577.11116,7.69986367225647,28.336,1.642,5.416,0.0359,0.1433,0.2594,-0.443,-1.262,-11.53,-0.042671,-0.163115,0.38949,0.119436532445455,0.17280801287533,0.366222558529376
520,1710359577.13582,7.72451758384705,28.818,1.48,5.212,0.0376,0.1393,0.2574,-0.525,-0.963,-11.177,-0.21017,-0.03383,0.335809,0.121136532445455,0.16880801287533,0.364222558529376
521,1710359577.16129,7.749995470047,29.221,1.423,4.91,0.0376,0.1383,0.2552,-0.465,-1.585,-10.512,-0.206801,-0.017202,0.221868,0.121136532445455,0.16780801287533,0.362022558529376
522,1710359577.18587,7.77457356452942,29.467,1.396,4.703,0.0405,0.1432,0.2575,-0.254,-0.969,-10.439,-0.111829,0.018425,0.164922,0.124036532445455,0.17270801287533,0.364322558529376
523,1710359577.21114,7.79984354972839,29.729,1.485,4.615,0.0386,0.1413,0.2618,0.081,-0.687,-9.705,-0.024462,0.118375,0.193925,0.122136532445455,0.17080801287533,0.368622558529376
524,1710359577.23585,7.82455348968506,30.018,1.651,4.623,0.0394,0.1323,0.2587,0.26,-0.44,-8.904,0.014945,0.136409,0.191715,0.122936532445455,0.16180801287533,0.365522558529376
525,1710359577.2609,7.84960174560547,30.361,1.819,4.655,0.0412,0.1323,0.2632,0.095,-0.223,-8.303,0.020279,0.10849,0.249051,0.124736532445455,0.16180801287533,0.370022558529376
526,1710359577.28653,7.87523460388184,30.736,1.847,4.678,0.0404,0.1412,0.2586,-0.101,-0.166,-8.766,0.000294,-0.004397,0.247942,0.123936532445455,0.17070801287533,0.365422558529376
527,1710359577.31078,7.89947700500488,31.145,1.733,4.647,0.0412,0.1323,0.2621,-0.116,0.192,-9.497,-0.053974,-0.100336,0.310738,0.124736532445455,0.16180801287533,0.368922558529376
528,1710359577.33568,7.92438125610352,31.563,1.448,4.564,0.045,0.1391,0.2633,-0.47,-0.27,-10.384,-0.064852,-0.237959,0.282056,0.128536532445455,0.16860801287533,0.370122558529376
529,1710359577.36096,7.94966077804565,31.913,1.047,4.529,0.0477,0.1321,0.2603,-0.389,-0.218,-11.824,-0.025883,-0.230851,0.267313,0.131236532445455,0.16160801287533,0.367122558529376
530,1710359577.38721,7.9759156703949,32.225,0.864,4.465,0.0504,0.1251,0.2584,-0.067,-0.461,-11.895,-0.050265,-0.000404,0.206923,0.133936532445455,0.15460801287533,0.365222558529376
531,1710359577.4111,7.99980092048645,32.519,0.962,4.396,0.0514,0.1301,0.2606,0.265,-0.86,-10.17,-0.036282,0.132225,0.185989,0.134936532445455,0.15960801287533,0.367422558529376
532,1710359577.43814,8.02683782577515,32.749,1.1,4.418,0.0523,0.132,0.2617,0.454,-1.007,-8.52,0.056194,0.064063,0.13537,0.135836532445455,0.16150801287533,0.368522558529376
533,1710359577.46101,8.0497133731842,32.891,1.035,4.524,0.0505,0.1311,0.2649,0.594,-0.659,-8.929,0.071843,-0.076918,0.104055,0.134036532445455,0.16060801287533,0.371722558529376
534,1710359577.48731,8.07601571083069,33.016,0.939,4.537,0.0513,0.1251,0.2595,0.514,-0.513,-9.626,-0.046777,-0.037115,0.07949,0.134836532445455,0.15460801287533,0.366322558529376
535,1710359577.51154,8.10023713111877,33.129,0.948,4.404,0.0504,0.1251,0.2606,0.465,-0.654,-9.658,-0.108375,0.037901,0.063331,0.133936532445455,0.15460801287533,0.367422558529376
536,1710359577.53633,8.12503027915955,33.194,1.02,4.208,0.0522,0.1231,0.2629,0.586,-0.327,-9.147,-0.15327,0.052852,0.031606,0.135736532445455,0.15260801287533,0.369722558529376
537,1710359577.56136,8.15006303787231,33.274,1.045,4.026,0.0522,0.1251,0.2629,0.564,-0.124,-9.325,-0.111742,0.00991,0.066099,0.135736532445455,0.15460801287533,0.369722558529376
538,1710359577.58626,8.17496013641357,33.414,1.028,3.868,0.0522,0.1211,0.2618,0.506,-0.037,-9.622,-0.097712,-0.020801,0.115642,0.135736532445455,0.15060801287533,0.368622558529376
539,1710359577.61171,8.20041632652283,33.626,0.992,3.758,0.054,0.1191,0.2653,0.689,0.583,-9.927,-0.1091,2.3e-05,0.196221,0.137536532445455,0.14860801287533,0.372122558529376
540,1710359577.63679,8.22548723220825,34.047,1.02,3.654,0.053,0.1161,0.263,0.732,-0.336,-9.854,-0.035651,0.043659,0.332005,0.136536532445455,0.14560801287533,0.369822558529376
541,1710359577.66115,8.24985265731812,34.435,1.042,3.705,0.0539,0.1161,0.2664,0.564,-1.821,-9.887,0.056611,0.0322,0.19596,0.137436532445455,0.14560801287533,0.373222558529376
542,1710359577.68761,8.27631402015686,34.546,1.105,3.82,0.0549,0.1171,0.2653,0.586,-1.613,-10.053,0.096305,0.067995,0.003536,0.138436532445455,0.14660801287533,0.372122558529376
543,1710359577.71131,8.30000925064087,34.507,1.205,3.991,0.053,0.1181,0.2674,0.789,-0.715,-10.302,0.145424,0.062876,-0.042354,0.136536532445455,0.14760801287533,0.374222558529376
544,1710359577.73622,8.32491660118103,34.587,1.352,4.239,0.0539,0.1141,0.2653,1.087,-0.476,-10.638,0.200109,0.12998,0.108451,0.137436532445455,0.14360801287533,0.372122558529376
545,1710359577.7611,8.3498055934906,34.723,1.548,4.555,0.0533,0.132,0.2585,1.025,-0.812,-10.718,0.229263,0.154126,0.05728,0.136836532445455,0.16150801287533,0.365322558529376
546,1710359577.78609,8.37479400634766,34.865,1.738,4.872,0.0531,0.1231,0.264,1.185,-0.495,-10.342,0.215365,0.123142,0.114776,0.136636532445455,0.15260801287533,0.370822558529376
547,1710359577.81378,8.40247654914856,35.088,1.762,5.208,0.0504,0.1241,0.2573,1.001,0.402,-10.439,0.231454,-0.033807,0.201954,0.133936532445455,0.15360801287533,0.364122558529376
548,1710359577.83623,8.42493081092834,35.605,1.638,5.552,0.0543,0.1359,0.2585,0.392,-0.482,-11.715,0.235017,-0.036927,0.447247,0.137836532445455,0.16540801287533,0.365322558529376
549,1710359577.86127,8.44997382164001,36.124,1.602,5.899,0.0551,0.13,0.2597,-0.16,-1.385,-11.807,0.229676,0.060296,0.293674,0.138636532445455,0.15950801287533,0.366522558529376
550,1710359577.88677,8.47547078132629,36.486,1.763,6.159,0.0552,0.1379,0.2585,0.078,-0.77,-10.943,0.122032,0.201954,0.227779,0.138736532445455,0.16740801287533,0.365322558529376
551,1710359577.91106,8.49976634979248,36.816,2.083,6.277,0.0551,0.13,0.2608,-0.119,-1.693,-8.763,0.073915,0.191493,0.142915,0.138636532445455,0.15950801287533,0.367622558529376
552,1710359577.93623,8.52493500709534,36.912,2.159,6.406,0.0541,0.129,0.2597,-0.253,-1.339,-9.332,0.102251,-0.002485,0.016594,0.137636532445455,0.15850801287533,0.366522558529376
553,1710359577.96122,8.54992008209229,36.846,2.204,6.53,0.0551,0.131,0.2619,-0.201,-1.296,-10.074,0.057382,0.076738,-0.099755,0.138636532445455,0.16050801287533,0.368722558529376
554,1710359577.98603,8.5747332572937,36.767,2.452,6.562,0.0486,0.1301,0.256,0.42,0.001,-9.981,-0.000909,0.235596,-0.001446,0.132136532445455,0.15960801287533,0.362822558529376
555,1710359578.0109,8.599604845047,36.9,2.802,6.565,0.0486,0.1291,0.256,0.581,0.012,-8.816,0.004161,0.219807,0.114728,0.132136532445455,0.15860801287533,0.362822558529376
556,1710359578.036,8.62469792366028,37.232,2.936,6.627,0.0486,0.1311,0.2615,0.151,-0.03,-8.815,0.038846,0.039308,0.279902,0.132136532445455,0.16060801287533,0.368322558529376
557,1710359578.06105,8.64975452423096,37.748,2.817,6.699,0.0468,0.1361,0.2602,-0.632,-0.717,-9.788,0.033422,-0.088753,0.38623,0.130336532445455,0.16560801287533,0.367022558529376
558,1710359578.08596,8.67466425895691,38.35,2.619,6.718,0.055,0.126,0.2565,-1.146,-1.094,-10.631,-0.029731,-0.080205,0.451072,0.138536532445455,0.15550801287533,0.363322558529376
559,1710359578.1112,8.69989991188049,38.917,2.51,6.64,0.0532,0.1251,0.2596,-1.006,-1.242,-10.855,-0.097412,0.012351,0.381089,0.136736532445455,0.15460801287533,0.366422558529376
560,1710359578.13595,8.72465014457703,39.437,2.536,6.495,0.0541,0.124,0.2619,-0.512,-1.901,-10.044,-0.114538,0.084822,0.313552,0.137636532445455,0.15350801287533,0.368722558529376
561,1710359578.16173,8.75042867660522,39.755,2.587,6.381,0.054,0.1211,0.2641,0.021,-1.767,-9.314,-0.066197,0.033842,0.164374,0.137536532445455,0.15060801287533,0.370922558529376
562,1710359578.18589,8.77458715438843,39.897,2.566,6.334,0.054,0.1181,0.2631,0.333,-1.283,-9.111,-0.01694,-0.018136,0.08466,0.137536532445455,0.14760801287533,0.369922558529376
563,1710359578.21112,8.79982018470764,40.054,2.475,6.335,0.0549,0.1201,0.2598,0.656,-0.602,-9.633,-0.00324,-0.045974,0.168373,0.138436532445455,0.14960801287533,0.366622558529376
564,1710359578.23583,8.82453227043152,40.381,2.428,6.324,0.0559,0.122,0.2544,0.747,-0.826,-9.545,-0.020633,0.009257,0.278535,0.139436532445455,0.15150801287533,0.361222558529376
565,1710359578.26104,8.8497371673584,40.773,2.354,6.361,0.0587,0.122,0.2556,0.673,-1.136,-9.577,0.040439,-0.032809,0.280473,0.142236532445455,0.15150801287533,0.362422558529376
566,1710359578.28745,8.87614846229553,41.156,2.242,6.442,0.0595,0.119,0.2634,0.591,-1.239,-9.984,0.047178,-0.032891,0.264653,0.143036532445455,0.14850801287533,0.370222558529376
567,1710359578.31113,8.89983439445496,41.546,2.219,6.498,0.0614,0.1219,0.2646,0.601,-1.085,-9.965,0.014871,0.043094,0.28153,0.144936532445455,0.15140801287533,0.371422558529376
568,1710359578.33578,8.92447948455811,41.95,2.292,6.519,0.0623,0.1189,0.2636,0.802,-1.165,-9.414,-0.012588,0.089834,0.275468,0.145836532445455,0.14840801287533,0.370422558529376
569,1710359578.3614,8.95010042190552,42.349,2.359,6.506,0.0634,0.1268,0.2614,0.902,-1.154,-8.908,-0.028373,0.052652,0.280522,0.146936532445455,0.15630801287533,0.368222558529376
570,1710359578.38578,8.97448492050171,42.724,2.281,6.51,0.0632,0.1169,0.2604,0.865,-1.32,-9.631,0.00693,-0.052175,0.260129,0.146736532445455,0.14640801287533,0.367222558529376
571,1710359578.41137,9.00007629394531,43.059,2.181,6.513,0.0651,0.1188,0.266,0.704,-1.32,-10.382,-0.022936,-0.01708,0.222587,0.148636532445455,0.14830801287533,0.372822558529376
572,1710359578.43576,9.02445697784424,43.439,2.217,6.439,0.0659,0.1099,0.265,0.761,-1.183,-10.087,-0.090903,0.087097,0.287839,0.149436532445455,0.13940801287533,0.371822558529376
573,1710359578.46107,9.04977035522461,43.891,2.255,6.351,0.065,0.1119,0.2606,0.783,-1.854,-10.182,-0.061167,0.047534,0.307409,0.148536532445455,0.14140801287533,0.367422558529376
574,1710359578.48573,9.07443118095398,44.262,2.282,6.306,0.066,0.1168,0.2649,0.912,-1.251,-10.7,-0.034894,0.065237,0.242793,0.149536532445455,0.14630801287533,0.371722558529376
575,1710359578.51069,9.09939336776733,44.833,2.476,6.229,0.0641,0.1129,0.2638,1.057,-0.492,-11.316,-0.109713,0.279811,0.50137,0.147636532445455,0.14240801287533,0.370622558529376
576,1710359578.53569,9.12438774108887,45.586,2.991,6.042,0.063,0.106,0.266,0.896,-1.878,-9.572,-0.150004,0.449845,0.430684,0.146536532445455,0.13550801287533,0.372822558529376
577,1710359578.56089,9.1495954990387,46.073,3.469,5.9,0.0621,0.108,0.2703,1.146,-1.679,-8.324,-0.094673,0.298524,0.236778,0.145636532445455,0.13750801287533,0.377122558529376
578,1710359578.58647,9.17517042160034,46.405,3.612,5.843,0.0593,0.1031,0.2713,1.24,-0.071,-8.066,-0.00849,-0.010682,0.272185,0.142836532445455,0.13260801287533,0.378122558529376
579,1710359578.61088,9.19958400726318,46.883,3.301,5.95,0.062,0.0991,0.266,0.493,-0.471,-10.069,0.106094,-0.269977,0.359767,0.145536532445455,0.12860801287533,0.372822558529376
580,1710359578.63719,9.22588682174683,47.56,2.874,6.188,0.0676,0.1019,0.2652,0.273,-0.371,-10.718,0.173885,-0.239751,0.605924,0.151136532445455,0.13140801287533,0.372022558529376
581,1710359578.66086,9.24956274032593,48.314,2.413,6.443,0.0722,0.1018,0.2622,-0.156,-2.171,-11.167,0.136645,-0.263881,0.498924,0.155736532445455,0.13130801287533,0.369022558529376
582,1710359578.68736,9.27605748176575,48.831,1.82,6.586,0.0778,0.1017,0.2615,-0.664,-2.513,-11.405,0.056087,-0.420911,0.37875,0.161336532445455,0.13120801287533,0.368322558529376
583,1710359578.71172,9.30041813850403,49.106,1.25,6.654,0.0768,0.0967,0.2604,-0.625,-3.455,-12.405,0.004487,-0.244139,0.132206,0.160336532445455,0.12620801287533,0.367222558529376
584,1710359578.73634,9.32504320144653,49.168,1.283,6.533,0.0806,0.1016,0.2617,-0.047,-1.697,-10.874,-0.118548,0.190052,0.052717,0.164136532445455,0.13110801287533,0.368522558529376
585,1710359578.76126,9.3499596118927,49.254,1.57,6.461,0.0787,0.0997,0.2627,0.3,-1.365,-9.125,0.003344,0.198923,0.031945,0.162236532445455,0.12920801287533,0.369522558529376
586,1710359578.78629,9.37499260902405,49.371,1.807,6.593,0.0768,0.0977,0.2637,0.394,-0.064,-8.564,0.137236,0.15182,0.123211,0.160336532445455,0.12720801287533,0.370522558529376
587,1710359578.81123,9.39993119239807,49.671,1.969,6.844,0.0768,0.0997,0.2647,0.122,-0.334,-8.77,0.181042,0.143277,0.219897,0.160336532445455,0.12920801287533,0.371522558529376
588,1710359578.83637,9.42507100105286,50.018,2.171,7.03,0.0769,0.1017,0.2625,-0.056,-0.719,-8.315,0.076763,0.165685,0.199389,0.160436532445455,0.13120801287533,0.369322558529376
589,1710359578.86147,9.45016980171204,50.32,2.293,7.064,0.0741,0.0998,0.2613,-0.094,-0.483,-8.092,-0.012161,0.034658,0.200778,0.157636532445455,0.12930801287533,0.368122558529376
590,1710359578.88622,9.47492289543152,50.59,2.108,7.013,0.0768,0.0967,0.2615,-0.274,0.172,-9.803,-0.056388,-0.170875,0.22235,0.160336532445455,0.12620801287533,0.368322558529376
591,1710359578.91248,9.50117707252502,50.998,1.783,6.903,0.0795,0.0947,0.2661,-0.551,-0.631,-11.022,-0.098323,-0.214034,0.329066,0.163036532445455,0.12420801287533,0.372922558529376
592,1710359578.93619,9.52489614486694,51.308,1.468,6.779,0.0832,0.0926,0.2597,-0.354,-1.506,-12.321,-0.106449,-0.139433,0.170052,0.166736532445455,0.12210801287533,0.366522558529376
593,1710359578.96116,9.54985880851746,51.437,1.423,6.604,0.0813,0.0897,0.2652,0.249,-0.793,-11.002,-0.109268,0.014119,0.073016,0.164836532445455,0.11920801287533,0.372022558529376
594,1710359578.98631,9.57501029968262,51.633,1.406,6.46,0.085,0.0896,0.2621,0.707,-0.823,-10.048,-0.098043,0.002946,0.177345,0.168536532445455,0.11910801287533,0.368922558529376
595,1710359579.01112,9.59982490539551,51.877,1.322,6.4,0.084,0.0857,0.2643,0.728,-0.952,-9.858,-0.007567,-0.063907,0.180754,0.167536532445455,0.11520801287533,0.371122558529376
596,1710359579.0361,9.6247992515564,52.116,1.227,6.395,0.0877,0.0866,0.2623,0.545,-1.807,-9.864,-0.002481,-0.03232,0.131959,0.171236532445455,0.11610801287533,0.369122558529376
597,1710359579.06135,9.65005540847778,52.233,1.187,6.388,0.0859,0.0856,0.2622,0.458,-1.537,-9.176,-0.01988,-0.019725,0.064295,0.169436532445455,0.11510801287533,0.369022558529376
598,1710359579.08762,9.67632293701172,52.286,1.153,6.328,0.0878,0.0925,0.26,0.554,-1.33,-9.173,-0.047882,-0.029883,0.011581,0.171336532445455,0.12200801287533,0.366822558529376
599,1710359579.11111,9.69981503486633,52.309,1.114,6.26,0.0888,0.0945,0.2634,0.945,-0.38,-9.77,-0.048258,-0.015044,0.030824,0.172336532445455,0.12400801287533,0.370222558529376
600,1710359579.13617,9.72486925125122,52.42,1.117,6.217,0.0868,0.0846,0.2634,0.966,-0.647,-9.312,-0.012843,0.00959,0.085147,0.170336532445455,0.11410801287533,0.370222558529376
601,1710359579.16098,9.7496817111969,52.513,1.04,6.262,0.0868,0.0836,0.2612,0.843,-0.715,-9.357,0.052953,-0.073796,0.075602,0.170336532445455,0.11310801287533,0.368022558529376
602,1710359579.18601,9.77471566200256,52.623,0.896,6.347,0.0905,0.0875,0.2658,0.597,-0.69,-10.022,0.06726,-0.082398,0.092428,0.174036532445455,0.11700801287533,0.372622558529376
603,1710359579.211,9.79970645904541,52.785,0.855,6.408,0.0914,0.0865,0.2647,0.632,-0.723,-10.239,0.040634,0.035098,0.121508,0.174936532445455,0.11600801287533,0.371522558529376
604,1710359579.23594,9.82464289665222,52.988,0.91,6.489,0.0907,0.0974,0.2624,0.644,-1.379,-9.926,0.075469,0.065472,0.112226,0.174236532445455,0.12690801287533,0.369222558529376
605,1710359579.26093,9.84962916374207,53.067,0.958,6.652,0.0914,0.0875,0.2669,0.577,-1.482,-9.571,0.130596,0.023311,0.005406,0.174936532445455,0.11700801287533,0.373722558529376
606,1710359579.28595,9.87465620040894,53.076,0.954,6.819,0.0905,0.0845,0.2647,0.785,-0.479,-9.871,0.10354,-0.007499,0.054259,0.174036532445455,0.11400801287533,0.371522558529376
607,1710359579.31091,9.89961218833923,53.234,0.937,6.962,0.0905,0.0865,0.2658,0.818,-1.006,-10.15,0.100443,0.008625,0.155309,0.174036532445455,0.11600801287533,0.372622558529376
608,1710359579.33588,9.92458176612854,53.432,0.879,7.124,0.0906,0.0905,0.2635,0.752,-1.752,-10.242,0.131995,-0.051025,0.124945,0.174136532445455,0.12000801287533,0.370322558529376
609,1710359579.36086,9.94956207275391,53.499,0.745,7.35,0.0916,0.0974,0.2591,0.607,-2.036,-10.18,0.184962,-0.129512,-0.002108,0.175136532445455,0.12690801287533,0.365922558529376
610,1710359579.38587,9.97456741333008,53.533,0.437,7.669,0.0934,0.0934,0.2582,0.466,-0.55,-11.164,0.231016,-0.233035,0.145846,0.176936532445455,0.12290801287533,0.365022558529376
611,1710359579.41077,9.99947643280029,53.763,0.154,7.929,0.0962,0.0943,0.2584,-0.29,-1.589,-11.644,0.148389,-0.138603,0.171474,0.179736532445455,0.12380801287533,0.365222558529376
612,1710359579.43593,10.024631023407,54.013,0.024,8.084,0.098,0.0942,0.2574,-0.681,-2.101,-11.787,0.077403,-0.008758,0.154927,0.181536532445455,0.12370801287533,0.364222558529376
613,1710359579.46094,10.0496394634247,54.065,0.134,8.149,0.0961,0.0913,0.2606,-0.555,-1.865,-10.653,0.014684,0.123037,-0.061948,0.179636532445455,0.12080801287533,0.367422558529376
614,1710359579.48585,10.0745477676392,53.97,0.354,8.16,0.0944,0.0953,0.2582,-0.364,-1.149,-9.646,0.017796,0.135964,-0.095486,0.177936532445455,0.12480801287533,0.365022558529376
615,1710359579.51074,10.0994436740875,53.857,0.591,8.167,0.0962,0.0923,0.2595,-0.032,-0.816,-8.897,-0.024827,0.162628,-0.097537,0.179736532445455,0.12180801287533,0.366322558529376
616,1710359579.53577,10.1244711875916,53.834,0.811,8.095,0.0898,0.1024,0.259,0.327,-0.418,-8.965,-0.078892,0.149073,0.003197,0.173336532445455,0.13190801287533,0.365822558529376
617,1710359579.56086,10.149564743042,53.984,0.943,7.988,0.0897,0.0915,0.2602,0.312,-0.311,-9.03,-0.067839,0.053628,0.139968,0.173236532445455,0.12100801287533,0.367022558529376
618,1710359579.58576,10.1744587421417,54.268,0.889,7.914,0.0915,0.0904,0.2603,-0.103,-0.07,-9.917,-0.054505,-0.030834,0.252173,0.175036532445455,0.11990801287533,0.367122558529376
619,1710359579.61158,10.2002820968628,54.747,0.748,7.857,0.0914,0.0875,0.2636,-0.745,-0.254,-10.45,-0.020119,-0.058963,0.409025,0.174936532445455,0.11700801287533,0.370422558529376
620,1710359579.63874,10.2274413108826,55.37,0.583,7.786,0.0961,0.0893,0.2595,-1.395,-1.674,-10.773,-0.074992,-0.044872,0.428529,0.179636532445455,0.11880801287533,0.366322558529376
621,1710359579.66096,10.2496604919434,55.808,0.533,7.663,0.0971,0.0913,0.2585,-1.252,-2.852,-10.493,-0.097845,0.03815,0.200162,0.180636532445455,0.12080801287533,0.365322558529376
622,1710359579.68749,10.27618932724,55.971,0.641,7.523,0.096,0.0844,0.2596,-0.25,-1.504,-10.109,-0.116118,0.148613,0.103864,0.179536532445455,0.11390801287533,0.366422558529376
623,1710359579.71072,10.2994179725647,56.186,0.843,7.374,0.0941,0.0815,0.2584,0.346,-0.806,-9.609,-0.09419,0.15788,0.172091,0.177636532445455,0.11100801287533,0.365222558529376
624,1710359579.73647,10.3251695632935,56.525,1.012,7.271,0.0932,0.0825,0.266,0.496,-1.25,-9.432,-0.048539,0.141997,0.243233,0.176736532445455,0.11200801287533,0.372822558529376
625,1710359579.76059,10.349288225174,56.842,1.115,7.232,0.0941,0.0775,0.2606,0.526,-1.092,-9.34,-0.02115,0.066016,0.201902,0.177636532445455,0.10700801287533,0.367422558529376
626,1710359579.78644,10.3751382827759,57.189,1.197,7.231,0.0932,0.0835,0.2627,0.603,-0.774,-9.691,-0.003794,0.113779,0.262682,0.176736532445455,0.11300801287533,0.369522558529376
627,1710359579.81137,10.4000670909882,57.648,1.303,7.254,0.0932,0.0835,0.2594,0.473,-1.32,-9.087,0.0198,0.084194,0.306962,0.176736532445455,0.11300801287533,0.366222558529376
628,1710359579.83668,10.4253838062286,58.096,1.329,7.286,0.0913,0.0815,0.2648,0.314,-1.754,-9.114,0.012961,0.039962,0.291558,0.174836532445455,0.11100801287533,0.371622558529376
629,1710359579.86216,10.4508631229401,58.447,1.277,7.328,0.0941,0.0824,0.2682,0.309,-1.333,-9.639,0.034029,-0.013529,0.23303,0.177636532445455,0.11190801287533,0.375022558529376
630,1710359579.88626,10.4749622344971,58.855,1.286,7.365,0.093,0.0706,0.2639,0.533,-0.505,-9.995,-0.008224,0.087585,0.330492,0.176536532445455,0.10010801287533,0.370722558529376
631,1710359579.91128,10.4999811649323,59.418,1.398,7.343,0.0941,0.0785,0.265,0.653,-1.263,-9.602,-0.032261,0.148124,0.387043,0.177636532445455,0.10800801287533,0.371822558529376
632,1710359579.93638,10.525083065033,59.935,1.478,7.339,0.094,0.0706,0.2596,0.73,-1.52,-9.128,0.005332,0.051761,0.331756,0.177536532445455,0.10010801287533,0.366422558529376
633,1710359579.96127,10.5499725341797,60.362,1.426,7.362,0.0931,0.0736,0.2672,0.57,-1.621,-9.984,0.013564,-0.006365,0.268117,0.176636532445455,0.10310801287533,0.374022558529376
634,1710359579.98621,10.5749089717865,60.791,1.428,7.366,0.0967,0.0665,0.2675,0.483,-1.183,-10.585,-0.017898,0.083686,0.329987,0.180236532445455,0.0960080128753304,0.374322558529376
635,1710359580.01126,10.5999572277069,61.265,1.544,7.361,0.0948,0.0656,0.2707,0.439,-1.466,-10.513,-0.014319,0.144193,0.310701,0.178336532445455,0.0951080128753304,0.377522558529376
636,1710359580.03614,10.6248440742493,61.722,1.729,7.324,0.0911,0.0677,0.2682,0.362,-1.921,-10.551,-0.041514,0.193872,0.27431,0.174636532445455,0.0972080128753304,0.375022558529376
637,1710359580.06109,10.6497876644135,62.105,1.984,7.279,0.092,0.0667,0.2683,0.587,-1.232,-10.397,-0.047385,0.230701,0.249639,0.175536532445455,0.0962080128753304,0.375122558529376
638,1710359580.08609,10.6747918128967,62.545,2.308,7.24,0.0901,0.0608,0.2715,0.84,-0.893,-10.053,-0.032243,0.285415,0.307667,0.173636532445455,0.0903080128753304,0.378322558529376
639,1710359580.11108,10.6997857093811,63.126,2.584,7.213,0.0883,0.0638,0.2692,0.934,-0.575,-9.178,-0.027851,0.171119,0.440553,0.171836532445455,0.0933080128753304,0.376022558529376
640,1710359580.13618,10.724880695343,63.824,2.522,7.261,0.091,0.0607,0.2705,0.238,-0.954,-10.115,0.059648,-0.090358,0.501772,0.174536532445455,0.0902080128753304,0.377322558529376
641,1710359580.16107,10.7497692108154,64.574,2.217,7.466,0.091,0.0578,0.2684,-0.512,-1.118,-11.908,0.157692,-0.123683,0.580498,0.174536532445455,0.0873080128753304,0.375222558529376
642,1710359580.1861,10.7748017311096,65.298,2.13,7.623,0.0909,0.0528,0.2662,-0.867,-1.559,-11.75,-0.009049,0.130046,0.458958,0.174436532445455,0.0823080128753304,0.373022558529376
643,1710359580.21123,10.7999286651611,65.906,2.303,7.395,0.0919,0.0558,0.275,-0.321,-1.284,-10.13,-0.221856,0.176832,0.404144,0.175436532445455,0.0853080128753304,0.381822558529376
644,1710359580.23601,10.8247096538544,66.482,2.402,7.124,0.089,0.0479,0.2694,0.125,-1.242,-9.643,-0.161371,0.060427,0.401637,0.172536532445455,0.0774080128753304,0.376222558529376
645,1710359580.261,10.849701166153,67.079,2.39,7.041,0.0918,0.0518,0.2751,0.489,-1.02,-10.38,-0.023141,0.064574,0.418735,0.175336532445455,0.0813080128753304,0.381922558529376
646,1710359580.28607,10.8747687339783,67.725,2.57,7.074,0.0889,0.042,0.2761,0.767,-0.233,-10.071,0.01161,0.263525,0.441605,0.172436532445455,0.0715080128753304,0.382922558529376
647,1710359580.31093,10.8996286392212,68.533,2.916,7.086,0.0889,0.041,0.2673,0.653,0.421,-8.413,-0.023879,0.277792,0.602538,0.172436532445455,0.0705080128753304,0.374122558529376
648,1710359580.33592,10.9246206283569,69.439,2.916,7.139,0.0889,0.0449,0.2717,0.044,-0.243,-8.333,0.023251,-0.073756,0.622164,0.172436532445455,0.0744080128753304,0.378522558529376
649,1710359580.36091,10.9496128559113,70.218,2.569,7.167,0.0915,0.031,0.2731,-0.222,-0.486,-10.249,-0.035755,-0.202159,0.527594,0.175036532445455,0.0605080128753304,0.379922558529376
650,1710359580.38595,10.97465467453,70.956,2.277,7.11,0.0942,0.0299,0.2755,0.037,-0.189,-11.612,-0.089268,-0.063136,0.57541,0.177736532445455,0.0594080128753304,0.382322558529376
651,1710359580.41088,10.9995834827423,71.775,2.187,6.98,0.0951,0.026,0.2745,0.236,-0.629,-11.573,-0.109246,0.036989,0.587716,0.178636532445455,0.0555080128753304,0.381322558529376
652,1710359580.43588,11.0245766639709,72.565,2.195,6.876,0.0932,0.023,0.2766,0.318,-1.173,-11.728,-0.063022,0.104879,0.50002,0.176736532445455,0.0525080128753304,0.383422558529376
653,1710359580.4609,11.0495998859406,73.294,2.42,6.862,0.095,0.023,0.2778,0.791,-0.374,-10.73,-0.024504,0.288716,0.489433,0.178536532445455,0.0525080128753304,0.384622558529376
654,1710359580.48584,11.0745403766632,74.125,2.819,6.86,0.0904,0.0211,0.2732,0.921,-0.299,-8.826,-0.032999,0.350113,0.565129,0.173936532445455,0.0506080128753304,0.380022558529376
655,1710359580.51086,11.0995664596558,75.008,3.122,6.903,0.0895,0.0241,0.2774,0.921,-0.198,-7.889,0.018198,0.228008,0.610924,0.173036532445455,0.0536080128753304,0.384222558529376
656,1710359580.53582,11.124520778656,75.899,3.203,7.024,0.0885,0.0172,0.2797,0.766,-0.572,-8.116,0.048517,0.090816,0.608492,0.172036532445455,0.0467080128753304,0.386522558529376
657,1710359580.5608,11.1495018005371,76.732,3.2,7.087,0.0885,0.0202,0.2774,0.487,-1.575,-8.503,-0.005007,0.047894,0.522602,0.172036532445455,0.0497080128753304,0.384222558529376
658,1710359580.58715,11.1758556365967,77.382,3.121,7.113,0.0904,0.0191,0.2776,0.539,-1.023,-9.441,-0.00603,-0.002926,0.440848,0.173936532445455,0.0486080128753304,0.384422558529376
659,1710359580.61076,11.1994633674622,77.993,3.068,7.136,0.0893,0.0142,0.2819,0.795,-0.484,-9.881,-0.014794,0.03232,0.452551,0.172836532445455,0.0437080128753304,0.388722558529376
660,1710359580.63577,11.2244675159454,78.636,3.066,7.162,0.0901,0.0043,0.27,0.894,-1.063,-9.767,0.006434,0.06029,0.438647,0.173636532445455,0.0338080128753304,0.376822558529376
661,1710359580.66071,11.2494087219238,79.206,3.017,7.266,0.0911,0.0072,0.2799,0.737,-1.338,-9.865,0.095649,-0.009567,0.369128,0.174636532445455,0.0367080128753304,0.386722558529376
662,1710359580.68576,11.2744607925415,79.628,2.965,7.452,0.0883,0.0073,0.2798,0.954,-1.492,-10.354,0.098321,0.035457,0.230939,0.171836532445455,0.0368080128753304,0.386622558529376
663,1710359580.7107,11.2994048595428,79.958,3.056,7.574,0.091,0.0023,0.2756,1.58,-0.929,-9.992,0.065662,0.117454,0.23044,0.174536532445455,0.0318080128753304,0.382422558529376
664,1710359580.73575,11.3244514465332,80.36,3.161,7.714,0.0883,0.0053,0.2787,1.67,-1.244,-9.802,0.101061,0.092364,0.28565,0.171836532445455,0.0348080128753304,0.385522558529376
665,1710359580.76101,11.3497114181519,80.729,3.214,7.913,0.0885,0.0172,0.2808,1.372,-1.057,-10.075,0.145633,0.0539,0.239573,0.172036532445455,0.0467080128753304,0.387622558529376
666,1710359580.78565,11.3743493556976,81.106,3.258,8.141,0.0883,0.0073,0.282,1.117,-1.427,-10.497,0.137116,0.089389,0.253065,0.171836532445455,0.0368080128753304,0.388822558529376
667,1710359580.81061,11.3993120193481,81.474,3.397,8.334,0.0864,0.0054,0.283,1.156,-1.645,-10.373,0.09954,0.158507,0.233302,0.169936532445455,0.0349080128753304,0.389822558529376
668,1710359580.83646,11.4251654148102,81.803,3.548,8.506,0.0856,0.0084,0.2807,1.397,-1.511,-9.742,0.130962,0.094397,0.203651,0.169136532445455,0.0379080128753304,0.387522558529376
669,1710359580.86141,11.4501101970673,82.126,3.463,8.73,0.0846,0.0094,0.2795,1.197,-1.424,-10.264,0.147519,-0.092138,0.257687,0.168136532445455,0.0389080128753304,0.386322558529376
670,1710359580.88639,11.475093126297,82.471,3.167,8.946,0.0857,0.0143,0.2773,0.388,-1.747,-11.561,0.131456,-0.207003,0.273876,0.169236532445455,0.0438080128753304,0.384122558529376
671,1710359580.9105,11.4991986751556,82.776,2.876,9.124,0.0901,0.0033,0.2755,-0.422,-2.205,-13.103,0.089885,-0.092378,0.196756,0.173636532445455,0.0328080128753304,0.382322558529376
672,1710359580.93637,11.5250751972198,82.943,2.99,9.146,0.0883,0.0043,0.2798,-0.224,-1.914,-11.93,-0.028062,0.212038,0.045242,0.171836532445455,0.0338080128753304,0.386622558529376
673,1710359580.96133,11.5500288009644,83.037,3.39,9.029,0.0855,0.0034,0.2763,0.207,-1.634,-9.856,-0.101971,0.300083,-0.003011,0.169036532445455,0.0329080128753304,0.383122558529376
674,1710359580.98631,11.5750155448914,82.968,3.692,8.929,0.0846,0.0054,0.2828,0.427,-1.298,-9.499,-0.032906,0.14712,-0.114812,0.168136532445455,0.0349080128753304,0.389622558529376
675,1710359581.01126,11.5999581813812,82.781,3.939,8.889,0.08,0.0115,0.2825,0.472,-1.132,-10.23,-0.033899,0.19894,-0.177279,0.163536532445455,0.0410080128753304,0.389322558529376
676,1710359581.03626,11.624960899353,82.662,4.412,8.784,0.0763,0.0066,0.2834,0.87,-0.117,-9.929,-0.08676,0.387629,-0.052584,0.159836532445455,0.0361080128753304,0.390222558529376
677,1710359581.06129,11.6499924659729,82.825,5.039,8.614,0.0735,0.0067,0.2843,0.915,-0.529,-7.995,-0.133471,0.425519,0.110025,0.157036532445455,0.0362080128753304,0.391122558529376
678,1710359581.08625,11.6749539375305,83.206,5.318,8.569,0.0688,0.0038,0.2884,0.475,-0.887,-8.025,0.002061,0.085168,0.313184,0.152336532445455,0.0333080128753304,0.395222558529376
679,1710359581.11206,11.7007570266724,83.691,5.208,8.682,0.0715,-0.0002,0.2843,-0.197,-1.461,-9.903,0.057311,-0.05895,0.354282,0.155036532445455,0.0293080128753304,0.391122558529376
680,1710359581.13615,11.7248523235321,84.197,5.101,8.786,0.0716,0.0028,0.2875,-0.575,-2.051,-10.868,0.017795,0.034968,0.348426,0.155136532445455,0.0323080128753304,0.394322558529376
681,1710359581.16114,11.7498428821564,84.643,5.231,8.764,0.0715,-0.0022,0.2887,-0.239,-2.01,-10.583,-0.088906,0.216775,0.275493,0.155036532445455,0.0273080128753304,0.395522558529376
682,1710359581.18615,11.7748560905457,84.975,5.554,8.63,0.0688,0.0018,0.2896,0.424,-2.002,-8.974,-0.122565,0.25937,0.139957,0.152336532445455,0.0313080128753304,0.396422558529376
683,1710359581.21144,11.8001394271851,85.228,5.796,8.526,0.0669,-0.0001,0.2895,0.941,-1.527,-8.262,-0.062726,0.130259,0.168586,0.150436532445455,0.0294080128753304,0.396322558529376
684,1710359581.23612,11.8248224258423,85.425,5.801,8.528,0.0669,0.0019,0.2851,1.001,-1.555,-8.753,0.012889,-0.02851,0.120327,0.150436532445455,0.0314080128753304,0.391922558529376
685,1710359581.2611,11.8498032093048,85.667,5.701,8.593,0.0669,-0.0021,0.2906,0.964,-1.357,-9.676,0.021774,-0.028025,0.225053,0.150436532445455,0.0274080128753304,0.397422558529376
686,1710359581.28612,11.8748202323914,86.019,5.661,8.643,0.0668,-0.0041,0.2862,0.98,-1.393,-9.602,0.007066,0.02246,0.259981,0.150336532445455,0.0254080128753304,0.393022558529376
687,1710359581.31108,11.899783372879,86.459,5.598,8.708,0.0677,-0.0061,0.2907,0.865,-1.833,-9.564,0.039556,-0.01909,0.319913,0.151236532445455,0.0234080128753304,0.397522558529376
688,1710359581.33614,11.9248394966125,86.924,5.472,8.822,0.0668,-0.005,0.2862,0.666,-1.986,-9.758,0.039326,-0.028819,0.335374,0.150336532445455,0.0245080128753304,0.393022558529376
689,1710359581.3611,11.9498038291931,87.341,5.415,8.866,0.0668,-0.0031,0.2884,0.696,-1.832,-9.451,-0.020416,0.023879,0.275453,0.150336532445455,0.0264080128753304,0.395222558529376
690,1710359581.38614,11.9748427867889,87.733,5.402,8.865,0.0677,-0.008,0.2896,1.141,-1.411,-9.166,-0.025594,0.031997,0.280615,0.151236532445455,0.0215080128753304,0.396422558529376
691,1710359581.41103,11.9997327327728,88.119,5.356,8.836,0.0695,-0.0081,0.2908,1.279,-1.525,-9.132,-0.048791,-0.006888,0.262236,0.153036532445455,0.0214080128753304,0.397622558529376
692,1710359581.43614,12.0248460769653,88.495,5.258,8.803,0.0687,-0.0051,0.2896,1.326,-1.353,-9.514,-0.034088,-0.034131,0.27059,0.152236532445455,0.0244080128753304,0.396422558529376
693,1710359581.46101,12.0497164726257,88.931,5.145,8.769,0.0695,-0.0081,0.2886,1.319,-0.922,-9.93,-0.063072,-0.024081,0.351634,0.153036532445455,0.0214080128753304,0.395422558529376
694,1710359581.48599,12.074693441391,89.449,5.031,8.713,0.0685,-0.012,0.293,1.164,-1.536,-9.824,-0.067416,-0.031621,0.363559,0.152036532445455,0.0175080128753304,0.399822558529376
695,1710359581.51102,12.0997252464294,89.985,4.864,8.672,0.0694,-0.018,0.2888,1.046,-1.898,-10.32,-0.060158,-0.05962,0.396375,0.152936532445455,0.0115080128753304,0.395622558529376
696,1710359581.536,12.1247005462646,90.492,4.723,8.624,0.0712,-0.02,0.2922,1.147,-1.848,-10.694,-0.06874,-0.010624,0.358971,0.154736532445455,0.00950801287533036,0.399022558529376
697,1710359581.56106,12.1497633457184,91.007,4.718,8.556,0.0694,-0.015,0.292,1.335,-1.704,-10.474,-0.073557,0.093994,0.374554,0.152936532445455,0.0145080128753304,0.398822558529376
698,1710359581.58617,12.1748764514923,91.593,4.811,8.504,0.0665,-0.0229,0.2886,1.415,-1.753,-9.761,-0.061161,0.131797,0.410393,0.150036532445455,0.00660801287533036,0.395422558529376
699,1710359581.61089,12.1995894908905,92.177,4.876,8.489,0.0674,-0.0269,0.2887,1.344,-2.113,-9.597,-0.028755,0.074359,0.375038,0.150936532445455,0.00260801287533036,0.395522558529376
700,1710359581.63591,12.2246110439301,92.664,4.895,8.52,0.0675,-0.0189,0.2886,1.534,-1.918,-9.94,-0.004818,0.058121,0.311603,0.151036532445455,0.0106080128753304,0.395422558529376
701,1710359581.66491,12.2536144256592,93.165,4.98,8.5,0.0655,-0.0278,0.2886,1.659,-1.47,-9.53,-0.079264,0.123703,0.377116,0.149036532445455,0.00170801287533037,0.395422558529376
702,1710359581.68737,12.2760677337646,93.778,4.866,8.473,0.0646,-0.0298,0.2919,1.026,-1.512,-10.013,-0.026718,-0.119646,0.473141,0.148136532445455,-0.000291987124669636,0.398722558529376
703,1710359581.71085,12.2995507717133,94.435,4.56,8.481,0.0654,-0.0337,0.2931,0.133,-1.944,-11.49,-0.050283,-0.121604,0.468252,0.148936532445455,-0.00419198712466964,0.399922558529376
704,1710359581.73588,12.3245849609375,94.978,4.426,8.384,0.0663,-0.0367,0.291,-0.225,-1.64,-11.636,-0.128835,0.028487,0.342956,0.149836532445455,-0.00719198712466964,0.397822558529376
705,1710359581.76088,12.3495771884918,95.457,4.474,8.228,0.0682,-0.0358,0.29,-0.147,-2.08,-10.682,-0.118939,0.088568,0.306308,0.151736532445455,-0.00629198712466963,0.396822558529376
706,1710359581.78579,12.3744955062866,95.857,4.579,8.176,0.0655,-0.0318,0.2898,0.194,-1.703,-10.433,-0.027059,0.142353,0.247376,0.149036532445455,-0.00229198712466964,0.396622558529376
707,1710359581.811,12.3997056484222,96.258,4.845,8.204,0.0644,-0.0387,0.2942,0.645,-1.255,-9.314,0.012728,0.258847,0.252436,0.147936532445455,-0.00919198712466963,0.401022558529376
708,1710359581.83579,12.4244878292084,96.744,5.131,8.301,0.0597,-0.0455,0.2951,0.771,-0.819,-8.078,0.046813,0.21019,0.347636,0.143236532445455,-0.0159919871246696,0.401922558529376
709,1710359581.86094,12.4496405124664,97.277,5.124,8.457,0.0578,-0.0474,0.295,0.383,-0.788,-7.977,0.083928,-0.062995,0.377586,0.141336532445455,-0.0178919871246696,0.401822558529376
710,1710359581.88584,12.4745450019836,97.789,4.834,8.572,0.0607,-0.0425,0.2874,0.08,-0.133,-9.426,0.005514,-0.173908,0.409244,0.144236532445455,-0.0129919871246696,0.394222558529376
711,1710359581.91131,12.500013589859,98.317,4.506,8.507,0.0625,-0.0406,0.2963,-0.119,-1.164,-10.353,-0.111239,-0.175964,0.353111,0.146036532445455,-0.0110919871246696,0.403122558529376
712,1710359581.93585,12.5245475769043,98.704,4.209,8.37,0.0662,-0.0466,0.29,0.334,-0.985,-11.319,-0.117696,-0.141741,0.283259,0.149736532445455,-0.0170919871246696,0.396822558529376
713,1710359581.96073,12.5494332313538,99.068,4.111,8.217,0.0642,-0.0515,0.2932,0.967,-1.067,-10.973,-0.136331,0.044766,0.251734,0.147736532445455,-0.0219919871246696,0.400022558529376
714,1710359581.98587,12.5745720863342,99.46,4.2,8.076,0.0651,-0.0535,0.2856,1.434,-0.563,-9.779,-0.102785,0.11999,0.298379,0.148636532445455,-0.0239919871246696,0.392422558529376
715,1710359582.01063,12.5993340015411,99.952,4.263,8.014,0.0633,-0.0525,0.2855,1.326,-0.885,-8.845,-0.034618,0.05338,0.351277,0.146836532445455,-0.0229919871246696,0.392322558529376
716,1710359582.03818,12.6268856525421,100.46,4.178,8.034,0.0651,-0.0555,0.29,1.057,-1.263,-8.649,-0.003895,-0.052393,0.351478,0.148636532445455,-0.0259919871246696,0.396822558529376
717,1710359582.06065,12.6493539810181,100.927,3.976,8.053,0.066,-0.0595,0.2901,0.679,-1.407,-9.142,-0.018259,-0.113532,0.341261,0.149536532445455,-0.0299919871246696,0.396922558529376
718,1710359582.08644,12.6751403808594,101.336,3.763,8.028,0.0649,-0.0654,0.2934,0.565,-1.657,-10.031,-0.047098,-0.081106,0.28184,0.148436532445455,-0.0358919871246696,0.400222558529376
719,1710359582.11138,12.7000799179077,101.635,3.696,7.965,0.0641,-0.0634,0.2868,0.749,-1.58,-9.857,-0.065811,0.017096,0.168249,0.147636532445455,-0.0338919871246696,0.393622558529376
720,1710359582.13643,12.7251298427582,101.871,3.702,7.879,0.0631,-0.0624,0.29,1.1,-0.972,-9.192,-0.072581,0.024284,0.170401,0.146636532445455,-0.0328919871246696,0.396822558529376
721,1710359582.16178,12.7504832744598,102.11,3.649,7.827,0.0641,-0.0624,0.2857,1.198,-1.075,-9.019,-0.02118,-0.046673,0.163444,0.147636532445455,-0.0328919871246696,0.392522558529376
722,1710359582.1866,12.7753007411957,102.363,3.508,7.847,0.0669,-0.0605,0.2869,1.15,-1.101,-9.343,0.014088,-0.085815,0.201793,0.150436532445455,-0.0309919871246696,0.393722558529376
723,1710359582.21128,12.7999861240387,102.637,3.367,7.891,0.0678,-0.0635,0.2925,0.913,-1.746,-9.448,0.026028,-0.06457,0.183119,0.151336532445455,-0.0339919871246696,0.399322558529376
724,1710359582.23626,12.8249664306641,102.84,3.225,7.935,0.0641,-0.0624,0.2879,0.99,-1.59,-9.231,0.021466,-0.103323,0.139738,0.147636532445455,-0.0328919871246696,0.394722558529376
725,1710359582.26129,12.8499882221222,103.004,3.015,7.973,0.0659,-0.0645,0.2902,1.183,-1.176,-9.72,0.007399,-0.14843,0.139368,0.149436532445455,-0.0349919871246696,0.397022558529376
726,1710359582.28633,12.8750333786011,103.181,2.774,8.028,0.0687,-0.0625,0.2893,1.271,-1.274,-10.203,0.045244,-0.151219,0.134094,0.152236532445455,-0.0329919871246696,0.396122558529376
727,1710359582.31144,12.900139093399,103.355,2.561,8.12,0.0705,-0.0636,0.2861,1.455,-1.011,-10.603,0.062376,-0.103862,0.151008,0.154036532445455,-0.0340919871246696,0.392922558529376
728,1710359582.33624,12.9249455928802,103.554,2.391,8.267,0.0724,-0.0616,0.2862,1.388,-0.961,-10.753,0.130267,-0.095957,0.166363,0.155936532445455,-0.0320919871246696,0.393022558529376
729,1710359582.36135,12.9500477313995,103.773,2.268,8.475,0.0714,-0.0676,0.284,1.212,-0.99,-10.522,0.132598,-0.037189,0.154759,0.154936532445455,-0.0380919871246696,0.390822558529376
730,1710359582.38622,12.9749205112457,104.022,2.159,8.624,0.0696,-0.0616,0.2882,0.903,-1.487,-9.691,0.085842,-0.115878,0.16904,0.153136532445455,-0.0320919871246696,0.395022558529376
731,1710359582.41405,13.00275349617,104.283,1.776,8.758,0.0733,-0.0656,0.2918,0.777,-0.601,-10.824,0.086064,-0.298067,0.29076,0.156836532445455,-0.0360919871246696,0.398622558529376
732,1710359582.43617,13.0248670578003,104.758,1.101,8.964,0.0771,-0.0598,0.281,-0.027,-1.186,-11.581,0.153564,-0.507291,0.452074,0.160636532445455,-0.0302919871246696,0.387822558529376
733,1710359582.46109,13.0497875213623,105.316,0.329,9.166,0.0798,-0.0628,0.2834,-0.895,-1.634,-13.058,0.126403,-0.425336,0.46995,0.163336532445455,-0.0332919871246696,0.390222558529376
734,1710359582.48645,13.0751523971558,105.805,-0.112,9.324,0.0853,-0.0669,0.275,-1.042,-2.116,-13.542,0.056675,-0.073697,0.326756,0.168836532445455,-0.0373919871246696,0.381822558529376
735,1710359582.51118,13.0998840332031,106.146,0.162,9.308,0.0797,-0.0687,0.278,-0.33,-2.019,-10.221,-0.035189,0.346942,0.126343,0.163236532445455,-0.0391919871246696,0.384822558529376
736,1710359582.53648,13.1251854896545,106.344,0.634,9.283,0.0788,-0.0697,0.2823,0.483,-1.21,-8.698,-0.02757,0.347474,0.078183,0.162336532445455,-0.0401919871246696,0.389122558529376
737,1710359582.56167,13.150369644165,106.598,1.042,9.248,0.0723,-0.0705,0.2841,0.586,-0.873,-8.002,-0.006172,0.264853,0.166773,0.155836532445455,-0.0409919871246696,0.390922558529376
738,1710359582.58637,13.1750707626343,106.979,1.218,9.247,0.0713,-0.0725,0.2874,-0.2,-0.908,-8.967,-0.005312,0.10717,0.272569,0.154836532445455,-0.0429919871246696,0.394222558529376
739,1710359582.61174,13.2004380226135,107.443,1.268,9.238,0.0696,-0.0665,0.285,-0.696,0.161,-10.083,-0.019928,0.074642,0.376598,0.153136532445455,-0.0369919871246696,0.391822558529376
740,1710359582.63628,13.224978685379,108.111,1.247,9.225,0.0685,-0.0724,0.2872,-1.022,-0.364,-10.935,-0.014322,0.069566,0.504431,0.152036532445455,-0.0428919871246696,0.394022558529376
741,1710359582.66166,13.2503657341003,108.875,1.337,9.191,0.0695,-0.0695,0.2872,-0.945,-1.182,-10.422,-0.058008,0.204562,0.504081,0.153036532445455,-0.0399919871246696,0.394022558529376
742,1710359582.68593,13.2746338844299,109.575,1.527,9.079,0.0657,-0.0773,0.2881,-0.637,-1.706,-8.984,-0.08637,0.181723,0.427006,0.149236532445455,-0.0477919871246696,0.394922558529376
743,1710359582.71113,13.2998361587524,110.117,1.594,8.992,0.0639,-0.0713,0.2869,-0.382,-1.971,-9.223,-0.044852,0.061641,0.313424,0.147436532445455,-0.0417919871246696,0.393722558529376
744,1710359582.7359,13.3246014118195,110.562,1.644,8.96,0.0629,-0.0782,0.288,-0.024,-1.368,-9.64,-0.026175,0.10698,0.301209,0.146436532445455,-0.0486919871246696,0.394822558529376
745,1710359582.76092,13.3496201038361,111.039,1.767,8.933,0.062,-0.0792,0.2825,0.662,-1.03,-9.473,-0.030891,0.151774,0.330826,0.145536532445455,-0.0496919871246696,0.389322558529376
746,1710359582.78592,13.3746259212494,111.628,1.861,8.918,0.0553,-0.088,0.2876,0.727,-1.263,-8.949,-0.016658,0.103322,0.422523,0.138836532445455,-0.0584919871246696,0.394422558529376
747,1710359582.81135,13.4000520706177,112.256,1.826,8.943,0.0572,-0.087,0.2866,0.574,-1.013,-9.455,0.03159,0.011836,0.471299,0.140736532445455,-0.0574919871246696,0.393422558529376
748,1710359582.83643,13.4251344203949,112.977,1.768,9.037,0.0572,-0.085,0.2877,0.259,-1.616,-10.026,0.042983,0.073333,0.50451,0.140736532445455,-0.0554919871246696,0.394522558529376
749,1710359582.861,13.4497017860413,113.684,1.793,9.106,0.0554,-0.082,0.2919,0.301,-1.322,-9.863,0.028385,0.101898,0.49249,0.138936532445455,-0.0524919871246696,0.398722558529376
750,1710359582.88652,13.4752237796783,114.43,1.828,9.153,0.0546,-0.079,0.2897,0.263,-1.969,-9.676,0.021371,0.098486,0.495617,0.138136532445455,-0.0494919871246696,0.396522558529376
751,1710359582.9108,13.4994990825653,115.089,1.869,9.236,0.0507,-0.0859,0.295,0.21,-2.379,-9.704,0.053745,0.104625,0.414253,0.134236532445455,-0.0563919871246696,0.401822558529376
752,1710359582.93582,13.5245203971863,115.592,1.934,9.338,0.0507,-0.0898,0.2884,0.374,-1.8,-9.776,0.067173,0.111311,0.332026,0.134236532445455,-0.0602919871246696,0.395222558529376
753,1710359582.96111,13.5498151779175,116.082,2.058,9.432,0.0508,-0.0849,0.2917,0.507,-1.723,-9.466,0.047919,0.151304,0.319586,0.134336532445455,-0.0553919871246696,0.398522558529376
754,1710359582.98583,13.5745270252228,116.584,2.173,9.506,0.047,-0.0888,0.2937,0.562,-1.935,-9.221,0.038534,0.123633,0.328131,0.130536532445455,-0.0592919871246696,0.400522558529376
755,1710359583.01343,13.6021285057068,117.032,2.233,9.567,0.0441,-0.0936,0.2958,0.615,-1.66,-9.244,0.027968,0.066182,0.293094,0.127636532445455,-0.0640919871246696,0.402622558529376
756,1710359583.03578,13.6244831085205,117.497,2.245,9.62,0.0432,-0.0936,0.2902,0.612,-1.563,-9.767,0.004752,0.085656,0.332785,0.126736532445455,-0.0640919871246696,0.397022558529376
757,1710359583.06281,13.6515102386475,118.034,2.316,9.605,0.0432,-0.0956,0.2935,0.724,-1.512,-9.787,-0.034876,0.125076,0.395671,0.126736532445455,-0.0660919871246696,0.400322558529376
758,1710359583.08688,13.675582408905,118.616,2.402,9.571,0.0413,-0.0955,0.2956,0.781,-1.936,-9.776,-0.025618,0.122789,0.38037,0.124836532445455,-0.0659919871246696,0.402422558529376
759,1710359583.11088,13.6995797157288,119.171,2.47,9.578,0.0386,-0.0945,0.2965,0.869,-1.709,-9.995,0.000478,0.119006,0.371092,0.122136532445455,-0.0649919871246696,0.403322558529376
760,1710359583.13581,13.724511384964,119.736,2.544,9.596,0.0357,-0.0974,0.2964,1.065,-1.842,-9.953,-0.027967,0.086757,0.38714,0.119236532445455,-0.0678919871246696,0.403222558529376
761,1710359583.16062,13.7493255138397,120.328,2.699,9.529,0.0348,-0.0993,0.2908,1.432,-1.645,-9.496,-0.080853,0.172599,0.390695,0.118336532445455,-0.0697919871246696,0.397622558529376
762,1710359583.18647,13.77516913414,120.973,2.695,9.458,0.0321,-0.0924,0.2972,1.18,-1.609,-9.321,-0.048356,-0.040977,0.472121,0.115636532445455,-0.0628919871246696,0.404022558529376
763,1710359583.21192,13.8006238937378,121.664,2.334,9.469,0.0347,-0.1053,0.2931,0.485,-1.763,-11.6,0.006688,-0.201831,0.55051,0.118236532445455,-0.0757919871246696,0.399922558529376
764,1710359583.23642,13.8251264095306,122.377,2.006,9.474,0.0338,-0.1023,0.2974,-0.274,-1.973,-12.781,-0.035421,-0.071458,0.506714,0.117336532445455,-0.0727919871246696,0.404222558529376
765,1710359583.26176,13.8504567146301,123.088,1.961,9.384,0.0347,-0.1023,0.2953,-0.534,-1.87,-12.28,-0.114266,0.163387,0.488735,0.118236532445455,-0.0727919871246696,0.402122558529376
766,1710359583.28644,13.8751463890076,123.769,2.172,9.235,0.0309,-0.1131,0.2973,-0.832,-2.135,-10.673,-0.102483,0.275264,0.396843,0.114436532445455,-0.0835919871246696,0.404122558529376
767,1710359583.31252,13.9012205600739,124.332,2.448,9.213,0.0255,-0.1041,0.2947,-0.656,-2.123,-9.282,0.021412,0.224734,0.337187,0.109036532445455,-0.0745919871246696,0.401522558529376
768,1710359583.33631,13.9250123500824,124.838,2.711,9.309,0.0226,-0.1119,0.2902,-0.266,-1.656,-8.659,0.049355,0.241556,0.311838,0.106136532445455,-0.0823919871246696,0.397022558529376
769,1710359583.3613,13.9500057697296,125.319,2.944,9.382,0.0208,-0.1089,0.2967,-0.249,-1.04,-8.003,0.025177,0.152677,0.303646,0.104336532445455,-0.0793919871246696,0.403522558529376
770,1710359583.38628,13.9749827384949,125.746,2.836,9.457,0.0198,-0.1119,0.2955,-0.343,-0.793,-9.182,0.024819,-0.121782,0.307506,0.103336532445455,-0.0823919871246696,0.402322558529376
771,1710359583.41178,14.0004799365997,126.126,2.56,9.464,0.0179,-0.1138,0.2965,-0.383,-0.397,-10.537,-0.033939,-0.148093,0.29457,0.101436532445455,-0.0842919871246696,0.403322558529376
772,1710359583.43623,14.0249347686768,126.559,2.353,9.373,0.0225,-0.1129,0.2968,-0.25,-0.818,-10.751,-0.093154,-0.052575,0.32118,0.106036532445455,-0.0833919871246696,0.403622558529376
773,1710359583.46125,14.0499558448792,126.974,2.232,9.287,0.0197,-0.1148,0.2945,0.013,-1.395,-10.417,-0.05597,-0.029471,0.277462,0.103236532445455,-0.0852919871246696,0.401322558529376
774,1710359583.48643,14.0751340389252,127.322,2.175,9.259,0.0197,-0.1168,0.2956,0.355,-1.301,-10.024,-0.010535,0.017165,0.243521,0.103236532445455,-0.0872919871246696,0.402422558529376
775,1710359583.51139,14.1000945568085,127.705,2.147,9.325,0.0206,-0.1178,0.2946,0.571,-0.982,-9.667,0.065597,0.036334,0.298143,0.104136532445455,-0.0882919871246696,0.401422558529376
776,1710359583.53615,14.1248550415039,128.197,2.152,9.449,0.016,-0.1187,0.2932,0.501,-1.194,-9.27,0.073026,0.079577,0.36082,0.0995365324454553,-0.0891919871246696,0.400022558529376
777,1710359583.56115,14.1498534679413,128.721,2.172,9.536,0.0178,-0.1207,0.29,0.299,-1.92,-8.657,0.031678,0.050145,0.337657,0.101336532445455,-0.0911919871246696,0.396822558529376
778,1710359583.58635,14.1750500202179,129.148,2.099,9.592,0.0151,-0.1187,0.2942,0.198,-1.78,-8.898,0.01449,-0.025367,0.28301,0.0986365324454553,-0.0891919871246696,0.401022558529376
779,1710359583.61414,14.2028367519379,129.489,1.983,9.606,0.0168,-0.1276,0.2977,0.1,-1.341,-9.296,-0.009491,-0.049682,0.237638,0.100336532445455,-0.0980919871246696,0.404522558529376
780,1710359583.63627,14.2249758243561,129.802,1.87,9.573,0.016,-0.1157,0.2986,0.111,-1.559,-9.628,-0.048913,-0.023431,0.218761,0.0995365324454553,-0.0861919871246696,0.405422558529376
781,1710359583.66363,14.2523331642151,130.046,1.796,9.502,0.014,-0.1276,0.2954,0.308,-1.543,-9.517,-0.041982,-0.016417,0.163594,0.0975365324454553,-0.0980919871246696,0.402222558529376
782,1710359583.68618,14.2748811244965,130.239,1.772,9.474,0.0169,-0.1207,0.2987,0.841,-1.647,-9.177,-0.004108,0.012645,0.116252,0.100436532445455,-0.0911919871246696,0.405522558529376
783,1710359583.71108,14.2997832298279,130.414,1.736,9.561,0.0132,-0.1196,0.2974,1.358,-1.275,-9.407,0.103518,-0.016541,0.130439,0.0967365324454553,-0.0900919871246696,0.404222558529376
784,1710359583.73643,14.3251309394836,130.706,1.657,9.676,0.0149,-0.1256,0.2976,1.393,-1.089,-9.104,0.069891,-0.044631,0.24361,0.0984365324454553,-0.0960919871246696,0.404422558529376
785,1710359583.76158,14.3502807617188,131.043,1.453,9.793,0.0141,-0.1216,0.2997,1.118,-1.348,-10.139,0.094597,-0.117492,0.257096,0.0976365324454553,-0.0920919871246696,0.406522558529376
786,1710359583.78658,14.3752815723419,131.443,1.275,9.992,0.0178,-0.1227,0.2988,0.784,-1.723,-10.659,0.158176,-0.030318,0.298833,0.101336532445455,-0.0931919871246696,0.405622558529376
787,1710359583.81132,14.4000260829926,131.859,1.22,10.235,0.0178,-0.1217,0.2922,0.69,-2.276,-10.358,0.16353,0.023585,0.268711,0.101336532445455,-0.0921919871246696,0.399022558529376
788,1710359583.83629,14.4249951839447,132.177,1.183,10.489,0.0151,-0.1177,0.2953,0.85,-2.097,-10.268,0.183531,0.005863,0.210425,0.0986365324454553,-0.0881919871246696,0.402122558529376
789,1710359583.86101,14.4497146606445,132.434,1.102,10.792,0.0143,-0.1097,0.2952,0.875,-2.057,-10.787,0.22476,-0.023839,0.170981,0.0978365324454553,-0.0801919871246696,0.402022558529376
790,1710359583.88605,14.4747471809387,132.69,1.073,11.113,0.0152,-0.1058,0.2963,0.951,-2.028,-11.27,0.230548,0.049211,0.171536,0.0987365324454553,-0.0762919871246696,0.403122558529376
791,1710359583.91578,14.5044853687286,132.955,1.19,11.404,0.0151,-0.1147,0.2975,1.098,-1.89,-10.711,0.185876,0.143372,0.162828,0.0986365324454553,-0.0851919871246696,0.404322558529376
792,1710359583.93605,14.5247540473938,133.199,1.263,11.644,0.0087,-0.1126,0.2992,1.12,-1.694,-10.064,0.168914,0.009017,0.161777,0.0922365324454553,-0.0830919871246696,0.406022558529376
793,1710359583.96094,14.5496451854706,133.446,1.108,11.889,0.0115,-0.1107,0.3016,0.605,-1.88,-10.849,0.18139,-0.118495,0.209383,0.0950365324454553,-0.0811919871246696,0.408422558529376
794,1710359583.98598,14.5746786594391,133.696,0.904,12.148,0.0133,-0.1127,0.2995,0.007,-1.867,-11.889,0.179172,-0.072293,0.207433,0.0968365324454553,-0.0831919871246696,0.406322558529376
795,1710359584.01114,14.599844455719,134.029,0.775,12.399,0.0114,-0.1127,0.3005,-0.514,-1.79,-12.234,0.171682,-0.009335,0.276998,0.0949365324454553,-0.0831919871246696,0.407322558529376
796,1710359584.03587,14.6245727539062,134.445,0.752,12.659,0.0124,-0.1077,0.3038,-0.632,-1.336,-12.16,0.180617,0.085332,0.311225,0.0959365324454553,-0.0781919871246696,0.410622558529376
797,1710359584.06135,14.6500520706177,134.907,0.915,12.857,0.0079,-0.1037,0.3024,-0.362,-2.19,-11.546,0.104831,0.26048,0.251525,0.0914365324454553,-0.0741919871246696,0.409222558529376
798,1710359584.08592,14.674623966217,135.216,1.438,12.95,0.0051,-0.1026,0.2989,0.149,-1.819,-9.797,0.026969,0.49438,0.070475,0.0886365324454553,-0.0730919871246696,0.405722558529376
799,1710359584.11108,14.6997773647308,135.452,2.225,12.923,-0.0024,-0.1054,0.305,0.391,-1.484,-7.599,-0.04343,0.597855,0.028636,0.0811365324454553,-0.0758919871246696,0.411822558529376
800,1710359584.13601,14.7247135639191,135.713,2.894,12.88,-0.0098,-0.1102,0.3057,0.433,-1.189,-6.29,-0.020202,0.390258,0.117372,0.0737365324454553,-0.0806919871246696,0.412522558529376
801,1710359584.16186,14.7505619525909,136.079,3.123,12.902,-0.0107,-0.1091,0.3056,0.106,-1.022,-7.432,0.016718,0.101805,0.278333,0.0728365324454553,-0.0795919871246696,0.412422558529376
802,1710359584.18652,14.7752201557159,136.557,3.001,12.961,-0.0107,-0.1072,0.3045,-0.335,-1.164,-9.036,0.004159,-0.055856,0.370509,0.0728365324454553,-0.0776919871246696,0.411322558529376
803,1710359584.21439,14.8030948638916,137.143,2.758,12.937,-0.0088,-0.1052,0.3046,-0.608,-1.721,-10.178,-0.065423,-0.077397,0.470036,0.0747365324454553,-0.0756919871246696,0.411422558529376
804,1710359584.23642,14.8251240253448,137.783,2.55,12.842,-0.0108,-0.1101,0.3056,-0.621,-2.606,-11.5,-0.096666,0.006877,0.450418,0.0727365324454553,-0.0805919871246696,0.412422558529376
805,1710359584.26084,14.8495378494263,138.241,2.664,12.751,-0.0116,-0.1052,0.3055,-0.099,-3.052,-10.444,-0.076842,0.208956,0.193984,0.0719365324454553,-0.0756919871246696,0.412322558529376
806,1710359584.2858,14.8745005130768,138.56,2.91,12.628,-0.0146,-0.116,0.3055,0.303,-2.581,-9.134,-0.130013,0.196308,0.187843,0.0689365324454553,-0.0864919871246696,0.412322558529376
807,1710359584.31105,14.8997552394867,138.87,3.031,12.5,-0.0182,-0.1129,0.3074,0.569,-2.275,-8.684,-0.067625,0.052856,0.195345,0.0653365324454553,-0.0833919871246696,0.414222558529376
808,1710359584.33598,14.9246785640717,139.192,3.007,12.497,-0.0182,-0.1129,0.3063,0.505,-1.952,-9.767,0.01477,0.042906,0.226459,0.0653365324454553,-0.0833919871246696,0.413122558529376
809,1710359584.36255,14.9512476921082,139.578,3.036,12.576,-0.02,-0.1089,0.3061,0.634,-1.617,-9.748,0.054968,0.095207,0.285403,0.0635365324454553,-0.0793919871246696,0.412922558529376
810,1710359584.38665,14.9753534793854,140.056,3.128,12.696,-0.0228,-0.1128,0.306,0.678,-2.314,-8.753,0.088745,0.126252,0.316648,0.0607365324454553,-0.0832919871246696,0.412822558529376
811,1710359584.41389,15.002587556839,140.525,3.112,12.855,-0.0237,-0.1108,0.3037,0.624,-2.601,-8.778,0.091844,0.041422,0.314637,0.0598365324454553,-0.0812919871246696,0.410522558529376
812,1710359584.43652,15.0252225399017,140.949,3.049,12.982,-0.0246,-0.1088,0.3025,0.567,-2.566,-8.744,0.069015,0.002887,0.281688,0.0589365324454553,-0.0792919871246696,0.409322558529376
813,1710359584.46107,15.0497667789459,141.348,2.96,13.097,-0.0257,-0.1167,0.3103,0.592,-2.268,-9.23,0.061298,0.008533,0.294708,0.0578365324454553,-0.0871919871246696,0.417122558529376
814,1710359584.48647,15.0751736164093,141.776,2.841,13.205,-0.0255,-0.1078,0.3102,0.556,-2.75,-9.538,0.057329,-0.014964,0.307728,0.0580365324454553,-0.0782919871246696,0.417022558529376
815,1710359584.51569,15.1043899059296,142.141,2.754,13.29,-0.0265,-0.1117,0.3069,0.607,-2.885,-9.85,0.03112,0.024155,0.226472,0.0570365324454553,-0.0821919871246696,0.413722558529376
816,1710359584.53636,15.1250646114349,142.481,2.769,13.316,-0.0293,-0.1136,0.3045,0.822,-2.302,-9.857,-0.006925,0.099912,0.249148,0.0542365324454553,-0.0840919871246696,0.411322558529376
817,1710359584.56453,15.1532332897186,142.904,2.833,13.317,-0.0292,-0.1087,0.3055,0.924,-2.463,-9.324,-0.009656,0.105034,0.286963,0.0543365324454553,-0.0791919871246696,0.412322558529376
818,1710359584.58657,15.1752734184265,143.307,2.815,13.338,-0.0321,-0.1146,0.3065,0.815,-2.732,-9.55,0.010644,0.027689,0.261302,0.0514365324454553,-0.0850919871246696,0.413322558529376
819,1710359584.61126,15.1999604701996,143.657,2.777,13.353,-0.0312,-0.1146,0.3099,0.924,-2.337,-10.087,-0.016291,0.036269,0.23908,0.0523365324454553,-0.0850919871246696,0.416722558529376
820,1710359584.63629,15.2249932289124,144.066,2.862,13.295,-0.032,-0.1086,0.3087,1.107,-2.416,-10.073,-0.089368,0.19105,0.260553,0.0515365324454553,-0.0790919871246696,0.415522558529376
821,1710359584.66125,15.2499482631683,144.539,3.053,13.164,-0.033,-0.1145,0.3065,1.546,-1.986,-8.984,-0.10327,0.160015,0.330834,0.0505365324454553,-0.0849919871246696,0.413322558529376
822,1710359584.68652,15.2752196788788,145.078,3.091,13.009,-0.0376,-0.1085,0.3072,1.051,-2.56,-9.354,-0.101129,0.146939,0.363706,0.0459365324454553,-0.0789919871246696,0.414022558529376
823,1710359584.71119,15.2998909950256,145.474,2.826,12.985,-0.0386,-0.1114,0.3116,0.144,-1.821,-10.772,-0.011331,-0.214824,0.326358,0.0449365324454553,-0.0818919871246696,0.418422558529376
824,1710359584.7362,15.3249056339264,145.886,2.416,12.918,-0.0368,-0.1194,0.3041,-0.262,-1.674,-12.091,-0.135256,-0.160788,0.363372,0.0467365324454553,-0.0898919871246696,0.410922558529376
825,1710359584.76127,15.3499727249146,146.429,2.296,12.539,-0.0359,-0.1204,0.3075,-0.193,-2.104,-11.461,-0.352576,0.058273,0.412883,0.0476365324454553,-0.0908919871246696,0.414322558529376
826,1710359584.78618,15.3748843669891,146.952,2.356,12.073,-0.0388,-0.1273,0.303,-0.333,-3.338,-11.209,-0.290862,0.158823,0.263982,0.0447365324454553,-0.0977919871246696,0.409822558529376
827,1710359584.81258,15.4012804031372,147.269,2.582,11.748,-0.0398,-0.1302,0.3051,-0.401,-3.327,-10.22,-0.209389,0.217258,0.146531,0.0437365324454553,-0.10069198712467,0.411922558529376
828,1710359584.83612,15.4248175621033,147.494,2.948,11.473,-0.0435,-0.1291,0.306,0.06,-2.031,-9.483,-0.177631,0.309184,0.103915,0.0400365324454553,-0.0995919871246696,0.412822558529376
829,1710359584.8612,15.4499046802521,147.803,3.324,11.298,-0.0482,-0.1379,0.308,0.213,-1.622,-8.086,-0.089056,0.22702,0.169206,0.0353365324454553,-0.10839198712467,0.414822558529376
830,1710359584.88608,15.4747846126556,148.104,3.313,11.261,-0.0482,-0.134,0.3047,-0.24,-1.152,-8.96,-0.031506,-0.095862,0.217069,0.0353365324454553,-0.10449198712467,0.411522558529376
831,1710359584.91136,15.5000650882721,148.37,3.158,11.172,-0.0482,-0.1369,0.3025,-0.5,-0.71,-10.469,-0.117947,-0.045044,0.200479,0.0353365324454553,-0.10739198712467,0.409322558529376
832,1710359584.93612,15.5248181819916,148.663,3.147,10.932,-0.0491,-0.1349,0.3068,-0.271,-0.812,-10.345,-0.216506,0.069831,0.189895,0.0344365324454553,-0.10539198712467,0.413622558529376
833,1710359584.96145,15.5501506328583,148.964,3.201,10.65,-0.0528,-0.1378,0.3055,0.325,-1.398,-9.14,-0.18926,0.049408,0.187643,0.0307365324454553,-0.10829198712467,0.412322558529376
834,1710359584.98603,15.5747363567352,149.175,3.094,10.469,-0.052,-0.1428,0.3023,0.518,-0.984,-8.576,-0.102688,-0.119566,0.170875,0.0315365324454553,-0.11329198712467,0.409122558529376
835,1710359585.01276,15.6014583110809,149.397,2.753,10.412,-0.0502,-0.1438,0.3014,0.192,-1.584,-9.48,-0.009356,-0.245796,0.18442,0.0333365324454553,-0.11429198712467,0.408222558529376
836,1710359585.03595,15.6246495246887,149.622,2.339,10.473,-0.0464,-0.1429,0.3016,0.117,-1.085,-10.067,0.06196,-0.261826,0.267217,0.0371365324454553,-0.11339198712467,0.408422558529376
837,1710359585.06093,15.6496315002441,149.89,1.931,10.677,-0.0437,-0.143,0.3083,0.196,-1.739,-9.616,0.179893,-0.231021,0.225151,0.0398365324454553,-0.11349198712467,0.415122558529376
838,1710359585.08596,15.6746635437012,150.049,1.561,10.979,-0.0437,-0.147,0.304,0.261,-2.22,-9.015,0.231592,-0.233269,0.100523,0.0398365324454553,-0.11749198712467,0.410822558529376
839,1710359585.11095,15.6996500492096,150.039,1.183,11.311,-0.0417,-0.1381,0.3029,0.422,-1.605,-9.171,0.200383,-0.276572,0.041892,0.0418365324454553,-0.10859198712467,0.409722558529376
840,1710359585.13592,15.7246208190918,150.016,0.903,11.46,-0.0379,-0.1313,0.3031,0.866,-0.375,-9.282,0.049975,-0.116264,0.093989,0.0456365324454553,-0.10179198712467,0.409922558529376
841,1710359585.16542,15.7541229724884,150.215,0.693,11.436,-0.0369,-0.1263,0.302,0.957,-0.992,-9.429,-0.047141,-0.100836,0.22049,0.0466365324454553,-0.0967919871246696,0.408822558529376
842,1710359585.18591,15.7746076583862,150.499,0.485,11.388,-0.0343,-0.1353,0.3034,0.646,-1.739,-9.68,-0.028063,-0.115789,0.21233,0.0492365324454553,-0.10579198712467,0.410222558529376
843,1710359585.21132,15.8000254631042,150.738,0.284,11.327,-0.0352,-0.1353,0.3055,0.489,-1.214,-10.325,-0.031659,-0.099019,0.177538,0.0483365324454553,-0.10579198712467,0.412322558529376
844,1710359585.23615,15.8248553276062,150.962,0.162,11.32,-0.0361,-0.1343,0.3021,0.335,-1.346,-10.225,0.023292,-0.04955,0.123236,0.0474365324454553,-0.10479198712467,0.408922558529376
845,1710359585.26098,15.8496778011322,151.264,0.055,11.36,-0.038,-0.1362,0.3053,0.357,-1.658,-9.877,0.027059,-0.030182,0.263732,0.0455365324454553,-0.10669198712467,0.412122558529376
846,1710359585.28613,15.8748340606689,151.593,-0.099,11.421,-0.0371,-0.1392,0.3032,0.122,-2.433,-9.619,0.077817,-0.085378,0.185998,0.0464365324454553,-0.10969198712467,0.410022558529376
847,1710359585.31084,15.8995397090912,151.777,-0.338,11.597,-0.037,-0.1283,0.3064,0.02,-2.506,-10.443,0.124543,-0.1416,0.121301,0.0465365324454553,-0.0987919871246696,0.413222558529376
848,1710359585.33577,15.9244699478149,151.804,-0.493,11.777,-0.0324,-0.1324,0.3045,0.276,-2.139,-11.035,0.115563,-0.048547,0.00139,0.0511365324454553,-0.10289198712467,0.411322558529376
849,1710359585.36077,15.9494717121124,151.843,-0.508,11.869,-0.0342,-0.1294,0.3022,0.672,-1.779,-10.988,0.034456,0.045941,0.066714,0.0493365324454553,-0.0998919871246696,0.409022558529376
850,1710359585.38578,15.9744830131531,151.962,-0.477,11.922,-0.038,-0.1342,0.3064,0.922,-1.277,-10.245,0.058703,-0.009365,0.100483,0.0455365324454553,-0.10469198712467,0.413222558529376
851,1710359585.4108,15.999498128891,152.193,-0.584,12.015,-0.0333,-0.1304,0.3056,0.272,-1.839,-10.808,0.070003,-0.062853,0.187091,0.0502365324454553,-0.10089198712467,0.412422558529376
852,1710359585.43681,16.0255134105682,152.447,-0.717,12.118,-0.0371,-0.1352,0.3032,-0.338,-1.171,-11.631,0.07202,-0.019027,0.196154,0.0464365324454553,-0.10569198712467,0.410022558529376
853,1710359585.46313,16.051828622818,152.995,-0.722,12.158,-0.0389,-0.1352,0.3075,-1.166,-2.589,-12.148,0.026785,0.201725,0.460708,0.0446365324454553,-0.10569198712467,0.414322558529376
854,1710359585.48657,16.0752675533295,153.574,-0.527,12.19,-0.0388,-0.1283,0.2997,-0.997,-2.819,-10.245,0.042278,0.207681,0.294707,0.0447365324454553,-0.0987919871246696,0.406522558529376
855,1710359585.5109,16.0996024608612,153.854,-0.317,12.294,-0.0416,-0.1322,0.3039,-0.838,-2.875,-9.466,0.072168,0.148125,0.067124,0.0419365324454553,-0.10269198712467,0.410722558529376
856,1710359585.53645,16.1251537799835,153.959,-0.02,12.366,-0.0463,-0.132,0.3091,-0.368,-1.812,-9.221,0.055723,0.277189,0.062078,0.0372365324454553,-0.10249198712467,0.415922558529376
857,1710359585.56644,16.1551380157471,154.145,0.401,12.39,-0.0509,-0.1309,0.3055,-0.01,-1.374,-8.542,-0.017243,0.359046,0.085529,0.0326365324454553,-0.10139198712467,0.412322558529376
858,1710359585.58674,16.1754415035248,154.468,0.787,12.337,-0.0528,-0.1329,0.3065,-0.216,-1.179,-8.124,-0.014759,0.250973,0.236114,0.0307365324454553,-0.10339198712467,0.413322558529376
859,1710359585.61321,16.2019100189209,154.839,0.885,12.341,-0.0546,-0.1299,0.3075,-0.751,-2.104,-9.319,0.023634,0.039249,0.221744,0.0289365324454553,-0.10039198712467,0.414322558529376
860,1710359585.63638,16.2250814437866,155.071,0.857,12.382,-0.0555,-0.1269,0.3052,-0.844,-1.84,-10.31,0.023538,0.024657,0.148496,0.0280365324454553,-0.0973919871246696,0.412022558529376
861,1710359585.66407,16.2527720928192,155.414,0.961,12.31,-0.0564,-0.1298,0.3063,-0.634,-1.632,-10.067,-0.101092,0.183699,0.273337,0.0271365324454553,-0.10029198712467,0.413122558529376
862,1710359585.68629,16.2749881744385,155.889,1.212,12.099,-0.0602,-0.1367,0.3083,-0.429,-2.396,-9.545,-0.168777,0.273642,0.27071,0.0233365324454553,-0.10719198712467,0.415122558529376
863,1710359585.7113,16.3000040054321,156.248,1.466,11.886,-0.0629,-0.1277,0.3058,-0.242,-2.816,-8.986,-0.140594,0.209106,0.168077,0.0206365324454553,-0.0981919871246696,0.412622558529376
864,1710359585.73626,16.3249635696411,156.464,1.662,11.739,-0.0667,-0.1365,0.3046,-0.058,-2.141,-8.541,-0.088766,0.141844,0.118472,0.0168365324454553,-0.10699198712467,0.411422558529376
865,1710359585.76233,16.3510296344757,156.667,1.748,11.591,-0.0649,-0.1365,0.3036,0.13,-1.664,-8.331,-0.117094,0.040398,0.146485,0.0186365324454553,-0.10699198712467,0.410422558529376
866,1710359585.78632,16.3750221729279,156.97,1.693,11.429,-0.0658,-0.1375,0.3069,0.101,-1.802,-9.276,-0.103118,0.006341,0.240569,0.0177365324454553,-0.10799198712467,0.413722558529376
867,1710359585.81117,16.3998701572418,157.277,1.53,11.369,-0.0658,-0.1405,0.3058,-0.178,-2.148,-9.695,-0.041329,-0.104352,0.2428,0.0177365324454553,-0.11099198712467,0.412622558529376
868,1710359585.83636,16.4250581264496,157.597,1.269,11.347,-0.0686,-0.1374,0.3023,-0.188,-2.486,-10.322,-0.027111,-0.1377,0.256491,0.0149365324454553,-0.10789198712467,0.409122558529376
869,1710359585.86243,16.4511363506317,157.916,1.171,11.314,-0.0668,-0.1405,0.3068,0.185,-2.242,-9.795,-0.038922,0.036247,0.218845,0.0167365324454553,-0.11099198712467,0.413622558529376
870,1710359585.88616,16.4748623371124,158.292,1.161,11.259,-0.0695,-0.1404,0.3056,0.593,-2.249,-9.038,-0.045347,0.034521,0.277106,0.0140365324454553,-0.11089198712467,0.412422558529376
871,1710359585.91289,16.5015871524811,158.648,1.075,11.226,-0.0677,-0.1434,0.3046,0.754,-2.421,-9.269,-0.019792,-0.025207,0.245737,0.0158365324454553,-0.11389198712467,0.411422558529376
