seq,stamp,elapsed_time,yaw,pitch,roll,mag_x,mag_y,mag_z,accel_x,accel_y,accel_z,gyro_x,gyro_y,gyro_z,mag_x_corr,mag_y_corr,mag_z_corr
1514,1711303183.22736,0,-15.739,0.672,-3.275,0.3535,0.1071,-0.104,0.107,0.545,-9.926,0.000383,0.000857,0.000568,0.211026532993509,0.0376769646876666,-0.074826853576506
1515,1711303183.25233,0.0249743461608887,-15.743,0.673,-3.275,0.3526,0.1061,-0.1018,0.131,0.562,-9.913,0.000242,-0.000397,-0.000401,0.210126532993509,0.0366769646876666,-0.072626853576506
1516,1711303183.2774,0.0500481128692627,-15.745,0.673,-3.275,0.3544,0.1051,-0.105,0.126,0.561,-9.947,-0.000586,0.000795,-8.7e-05,0.211926532993509,0.0356769646876666,-0.075826853576506
1517,1711303183.30227,0.0749137401580811,-15.744,0.673,-3.275,0.3526,0.1081,-0.1051,0.107,0.585,-9.947,-5.2e-05,-0.000545,-0.000966,0.210126532993509,0.0386769646876666,-0.075926853576506
1518,1711303183.32729,0.099931001663208,-15.745,0.673,-3.274,0.3526,0.1052,-0.1128,0.121,0.562,-9.915,0.001023,-5.2e-05,0.000217,0.210126532993509,0.0357769646876666,-0.083626853576506
1519,1711303183.35227,0.1249098777771,-15.746,0.673,-3.273,0.3517,0.1062,-0.1052,0.089,0.552,-9.944,0.00082,9.6e-05,-0,0.209226532993509,0.0367769646876666,-0.076026853576506
1520,1711303183.37724,0.149882316589355,-15.748,0.672,-3.273,0.3536,0.1071,-0.1084,0.075,0.552,-9.935,-0.00072,-0.001591,-3.4e-05,0.211126532993509,0.0376769646876666,-0.079226853576506
1521,1711303183.40288,0.175519704818726,-15.752,0.672,-3.273,0.3563,0.107,-0.1049,0.09,0.569,-9.896,-0.00012,0.000932,-0.000881,0.213826532993509,0.0375769646876666,-0.075726853576506
1522,1711303183.42723,0.199872970581055,-15.752,0.671,-3.273,0.3554,0.1041,-0.1049,0.101,0.546,-9.909,-0.000436,-0.000199,0.000272,0.212926532993509,0.0346769646876666,-0.075726853576506
1523,1711303183.45252,0.225167989730835,-15.752,0.671,-3.273,0.3536,0.1111,-0.1095,0.107,0.59,-9.938,4.1e-05,0.000374,2e-06,0.211126532993509,0.0416769646876666,-0.080326853576506
1524,1711303183.47931,0.251957178115845,-15.756,0.671,-3.273,0.3527,0.1111,-0.1085,0.119,0.562,-9.933,-0.000536,0.000481,-0.002553,0.210226532993509,0.0416769646876666,-0.079326853576506
1525,1711303183.50233,0.274974822998047,-15.758,0.671,-3.274,0.3525,0.1012,-0.104,0.11,0.582,-9.927,-0.000702,-0.000478,-0.000359,0.210026532993509,0.0317769646876666,-0.074826853576506
1526,1711303183.52724,0.299880504608154,-15.757,0.671,-3.274,0.3527,0.1111,-0.1041,0.1,0.58,-9.934,0.001205,-0.000207,-0.000765,0.210226532993509,0.0416769646876666,-0.074926853576506
1527,1711303183.55271,0.325358152389526,-15.758,0.671,-3.275,0.3545,0.1091,-0.1061,0.106,0.578,-9.947,-0.000169,0.000662,-0.00014,0.212026532993509,0.0396769646876666,-0.076926853576506
1528,1711303183.57922,0.351865530014038,-15.76,0.671,-3.276,0.3545,0.1071,-0.1028,0.11,0.579,-9.919,-0.00052,0.00022,-0.000435,0.212026532993509,0.0376769646876666,-0.073626853576506
1529,1711303183.60227,0.374911785125732,-15.762,0.669,-3.276,0.3544,0.1041,-0.105,0.092,0.576,-9.926,0.000602,-0.000635,0.000625,0.211926532993509,0.0346769646876666,-0.075826853576506
1530,1711303183.62864,0.401288509368896,-15.762,0.668,-3.276,0.3563,0.106,-0.1027,0.121,0.564,-9.933,0.001474,-0.00082,0.000778,0.213826532993509,0.0365769646876666,-0.073526853576506
1531,1711303183.65199,0.424634218215942,-15.763,0.669,-3.276,0.3526,0.1081,-0.104,0.14,0.576,-9.95,0.000683,-0.000248,0.001658,0.210126532993509,0.0386769646876666,-0.074826853576506
1532,1711303183.67708,0.449722766876221,-15.764,0.669,-3.276,0.3508,0.1082,-0.1042,0.132,0.567,-9.937,0.000384,-0.00028,-0.000476,0.208326532993509,0.0387769646876666,-0.075026853576506
1533,1711303183.70246,0.475101232528687,-15.763,0.669,-3.275,0.3526,0.1042,-0.1084,0.125,0.556,-9.909,-0.000105,-9e-06,2.6e-05,0.210126532993509,0.0347769646876666,-0.079226853576506
1534,1711303183.72726,0.499903678894043,-15.763,0.67,-3.273,0.3535,0.1051,-0.1083,0.122,0.579,-9.937,0.000491,-0.000284,0.000868,0.211026532993509,0.0356769646876666,-0.079126853576506
1535,1711303183.75224,0.524886846542358,-15.763,0.67,-3.274,0.3526,0.1042,-0.1051,0.114,0.59,-9.936,-0.000669,0.000336,0.000324,0.210126532993509,0.0347769646876666,-0.075926853576506
1536,1711303183.77718,0.549823999404907,-15.765,0.67,-3.275,0.3536,0.1111,-0.1084,0.127,0.557,-9.956,-4.7e-05,-0.000488,0.000615,0.211126532993509,0.0416769646876666,-0.079226853576506
1537,1711303183.80256,0.575203657150269,-15.764,0.669,-3.274,0.3516,0.1022,-0.1073,0.114,0.592,-9.927,-0.000113,-0.00026,0.000915,0.209126532993509,0.0327769646876666,-0.078126853576506
1538,1711303183.82704,0.599687099456787,-15.764,0.668,-3.274,0.3517,0.1042,-0.1041,0.105,0.564,-9.903,0.000694,-0.000716,-0.000993,0.209226532993509,0.0347769646876666,-0.074926853576506
1539,1711303183.85228,0.62492299079895,-15.764,0.666,-3.274,0.3535,0.1051,-0.1061,0.106,0.561,-9.909,6e-06,0.000362,0.000279,0.211026532993509,0.0356769646876666,-0.076926853576506
1540,1711303183.87684,0.64948582649231,-15.767,0.666,-3.274,0.3536,0.1111,-0.1051,0.116,0.581,-9.945,-0.000329,2.6e-05,0.000412,0.211126532993509,0.0416769646876666,-0.075926853576506
1541,1711303183.9021,0.67474627494812,-15.769,0.667,-3.277,0.3508,0.1062,-0.103,0.122,0.586,-9.924,-0.000816,-0.000182,-0.000598,0.208326532993509,0.0367769646876666,-0.073826853576506
1542,1711303183.92754,0.700181245803833,-15.769,0.667,-3.279,0.3528,0.115,-0.1085,0.11,0.573,-9.952,0.000539,-0.000717,-0.001307,0.210326532993509,0.0455769646876666,-0.079326853576506
1543,1711303183.95273,0.72537088394165,-15.767,0.668,-3.278,0.3526,0.1051,-0.1073,0.119,0.549,-9.916,0.001007,0.000688,-0.000176,0.210126532993509,0.0356769646876666,-0.078126853576506
1544,1711303183.97803,0.750678300857544,-15.767,0.667,-3.278,0.3544,0.1031,-0.1028,0.086,0.586,-9.897,0.001228,-0.000193,-0.001116,0.211926532993509,0.0336769646876666,-0.073626853576506
1545,1711303184.00294,0.775581836700439,-15.766,0.667,-3.278,0.3517,0.1052,-0.1106,0.087,0.56,-9.953,0.001538,-0.000194,-0.000804,0.209226532993509,0.0357769646876666,-0.081426853576506
1546,1711303184.02852,0.801165819168091,-15.766,0.667,-3.278,0.3554,0.1061,-0.1038,0.072,0.716,-9.918,-0.004688,-0.002244,0.001708,0.212926532993509,0.0366769646876666,-0.074626853576506
1547,1711303184.0531,0.825743436813354,-15.764,0.667,-3.277,0.3535,0.1041,-0.1072,0.108,0.774,-9.801,-0.000507,-0.000559,0.000216,0.211026532993509,0.0346769646876666,-0.078026853576506
1548,1711303184.07856,0.851207494735718,-15.763,0.667,-3.276,0.3536,0.1081,-0.1062,0.109,0.543,-9.893,0.001133,0.000705,-0.000852,0.211126532993509,0.0386769646876666,-0.077026853576506
1549,1711303184.10298,0.875625133514404,-15.763,0.667,-3.276,0.3545,0.1061,-0.1028,0.129,0.561,-9.904,0.000646,0.001858,0.000389,0.212026532993509,0.0366769646876666,-0.073626853576506
1550,1711303184.12849,0.901134252548218,-15.763,0.667,-3.275,0.3545,0.1071,-0.1028,0.099,0.595,-9.893,0.000287,0.000683,0.000441,0.212026532993509,0.0376769646876666,-0.073626853576506
1551,1711303184.15284,0.925488710403442,-15.768,0.668,-3.275,0.3526,0.1032,-0.1029,0.124,0.551,-9.913,-9.3e-05,0.001226,-0.000686,0.210126532993509,0.0337769646876666,-0.073726853576506
1552,1711303184.17776,0.950399398803711,-15.769,0.668,-3.275,0.3545,0.1061,-0.105,0.131,0.561,-9.948,0.000614,-0.000945,-0.000869,0.212026532993509,0.0366769646876666,-0.075826853576506
1553,1711303184.20279,0.97543478012085,-15.77,0.667,-3.275,0.3526,0.1081,-0.1062,0.108,0.563,-9.91,0.000448,-4.1e-05,0.000635,0.210126532993509,0.0386769646876666,-0.077026853576506
1554,1711303184.22782,1.00045919418335,-15.772,0.666,-3.275,0.3564,0.11,-0.1038,0.116,0.546,-9.907,-0.000168,-0.000759,0.000263,0.213926532993509,0.0405769646876666,-0.074626853576506
1555,1711303184.25242,1.02506279945374,-15.773,0.667,-3.276,0.3526,0.1051,-0.1007,0.119,0.58,-9.874,-0.000467,-0.000122,0.000697,0.210126532993509,0.0356769646876666,-0.071526853576506
1556,1711303184.27768,1.05032849311829,-15.777,0.667,-3.276,0.3544,0.1041,-0.1039,0.127,0.581,-9.936,0.000481,0.000918,-0.000697,0.211926532993509,0.0346769646876666,-0.074726853576506
1557,1711303184.30279,1.07543206214905,-15.778,0.666,-3.274,0.3517,0.1071,-0.1052,0.113,0.57,-9.912,0.001395,-2.5e-05,-7.3e-05,0.209226532993509,0.0376769646876666,-0.076026853576506
1558,1711303184.32836,1.10100698471069,-15.782,0.666,-3.274,0.3527,0.1101,-0.1074,0.106,0.578,-9.944,-0.000731,0.000593,0.000158,0.210226532993509,0.0406769646876666,-0.078226853576506
1559,1711303184.3528,1.12544870376587,-15.782,0.666,-3.276,0.3545,0.112,-0.1018,0.115,0.555,-9.955,-0.001815,1.5e-05,0.000518,0.212026532993509,0.0425769646876666,-0.072626853576506
1560,1711303184.37729,1.14993095397949,-15.782,0.666,-3.277,0.3554,0.1061,-0.1038,0.123,0.551,-9.934,-0.001171,0.000462,-0.000193,0.212926532993509,0.0366769646876666,-0.074626853576506
1561,1711303184.40289,1.17553329467773,-15.782,0.666,-3.277,0.3545,0.1101,-0.1127,0.106,0.566,-9.957,0.000574,-0.000889,0.001526,0.212026532993509,0.0406769646876666,-0.083526853576506
1562,1711303184.42801,1.20065188407898,-15.785,0.665,-3.276,0.3546,0.115,-0.104,0.097,0.586,-9.937,0.000711,0.000308,-0.000595,0.212126532993509,0.0455769646876666,-0.074826853576506
1563,1711303184.4526,1.22524666786194,-15.786,0.665,-3.275,0.3554,0.1051,-0.1016,0.12,0.586,-9.898,0.000189,-5e-05,-0.000247,0.212926532993509,0.0356769646876666,-0.072426853576506
1564,1711303184.47731,1.2499577999115,-15.785,0.665,-3.275,0.3526,0.1061,-0.1051,0.098,0.573,-9.927,-2.3e-05,0.000539,-7.9e-05,0.210126532993509,0.0366769646876666,-0.075926853576506
1565,1711303184.50259,1.27523565292358,-15.782,0.666,-3.275,0.3545,0.111,-0.1051,0.108,0.566,-9.91,0.000528,0.000134,0.000415,0.212026532993509,0.0415769646876666,-0.075926853576506
1566,1711303184.52728,1.29992771148682,-15.782,0.665,-3.277,0.3535,0.1051,-0.1039,0.122,0.575,-9.915,-0.001914,-0.00038,-0.000666,0.211026532993509,0.0356769646876666,-0.074726853576506
1567,1711303184.55276,1.32540392875671,-15.783,0.665,-3.276,0.3545,0.1061,-0.1028,0.129,0.583,-9.94,-0.000625,0.000324,-0.000562,0.212026532993509,0.0366769646876666,-0.073626853576506
1568,1711303184.57732,1.34996390342712,-15.786,0.665,-3.276,0.3554,0.108,-0.1039,0.12,0.568,-9.913,-0.000511,0.000384,-0.000968,0.212926532993509,0.0385769646876666,-0.074726853576506
1569,1711303184.60249,1.37513852119446,-15.786,0.665,-3.276,0.3526,0.1022,-0.1095,0.126,0.577,-9.919,0.000446,-0.000616,0.000329,0.210126532993509,0.0327769646876666,-0.080326853576506
1570,1711303184.62991,1.40255737304688,-15.786,0.665,-3.277,0.3554,0.108,-0.1039,0.133,0.556,-9.935,-0.000691,-0.00022,-0.001617,0.212926532993509,0.0385769646876666,-0.074726853576506
1571,1711303184.65245,1.42509198188782,-15.789,0.665,-3.279,0.3526,0.1042,-0.104,0.124,0.572,-9.953,-0.001089,-8.4e-05,0.000443,0.210126532993509,0.0347769646876666,-0.074826853576506
1572,1711303184.67733,1.44997572898865,-15.791,0.665,-3.28,0.3554,0.108,-0.1061,0.109,0.551,-9.931,-0.000215,0.001425,0.000269,0.212926532993509,0.0385769646876666,-0.076926853576506
1573,1711303184.70223,1.47487211227417,-15.791,0.666,-3.28,0.3517,0.1062,-0.1096,0.085,0.586,-9.931,0.000107,0.00048,-0.000552,0.209226532993509,0.0367769646876666,-0.080426853576506
1574,1711303184.72773,1.50037407875061,-15.79,0.665,-3.28,0.3535,0.1041,-0.0995,0.13,0.565,-9.955,0.000744,-0.000793,0.000788,0.211026532993509,0.0346769646876666,-0.070326853576506
1575,1711303184.75244,1.52508521080017,-15.79,0.665,-3.28,0.3516,0.1012,-0.1018,0.113,0.554,-9.93,0.000142,0.000843,0.000818,0.209126532993509,0.0317769646876666,-0.072626853576506
1576,1711303184.77706,1.54970669746399,-15.792,0.666,-3.279,0.3535,0.1051,-0.1029,0.112,0.562,-9.912,0.00048,-0.000797,-0.000772,0.211026532993509,0.0356769646876666,-0.073726853576506
1577,1711303184.80234,1.57497930526733,-15.795,0.666,-3.278,0.3526,0.1071,-0.1018,0.101,0.585,-9.925,-0.000344,-0.000348,0.000475,0.210126532993509,0.0376769646876666,-0.072626853576506
1578,1711303184.82779,1.60043621063232,-15.796,0.666,-3.277,0.3536,0.1081,-0.1062,0.123,0.552,-9.908,0.000469,-0.000197,-0.000407,0.211126532993509,0.0386769646876666,-0.077026853576506
1579,1711303184.85228,1.62492251396179,-15.797,0.666,-3.277,0.3526,0.1081,-0.1007,0.147,0.578,-9.934,0.000769,-0.000296,8.7e-05,0.210126532993509,0.0386769646876666,-0.071526853576506
1580,1711303184.87707,1.64971137046814,-15.797,0.665,-3.278,0.3526,0.1051,-0.104,0.098,0.597,-9.927,-0.000689,0.000467,-0.001591,0.210126532993509,0.0356769646876666,-0.074826853576506
1581,1711303184.90229,1.67493724822998,-15.798,0.665,-3.278,0.3517,0.1042,-0.1084,0.107,0.552,-9.909,1.5e-05,0.000366,-0.000188,0.209226532993509,0.0347769646876666,-0.079226853576506
1582,1711303184.92729,1.69993376731873,-15.798,0.665,-3.278,0.3536,0.1071,-0.1051,0.11,0.576,-9.952,0.000698,-0.000735,-3.4e-05,0.211126532993509,0.0376769646876666,-0.075926853576506
1583,1711303184.95246,1.72510480880737,-15.798,0.665,-3.278,0.3527,0.1111,-0.1096,0.109,0.589,-9.929,0.000136,0.000407,-0.001088,0.210226532993509,0.0416769646876666,-0.080426853576506
1584,1711303184.97734,1.74997901916504,-15.8,0.665,-3.278,0.3545,0.1061,-0.1028,0.116,0.555,-9.92,0.000509,0.000232,0.000763,0.212026532993509,0.0366769646876666,-0.073626853576506
1585,1711303185.00226,1.77489948272705,-15.801,0.666,-3.277,0.3526,0.1042,-0.104,0.117,0.572,-9.919,0.001631,0.000657,-0.001763,0.210126532993509,0.0347769646876666,-0.074826853576506
1586,1711303185.02696,1.79960155487061,-15.805,0.666,-3.275,0.3544,0.1041,-0.1028,0.112,0.58,-9.91,0.001072,0.00097,-0.000363,0.211926532993509,0.0346769646876666,-0.073626853576506
1587,1711303185.05214,1.82478809356689,-15.806,0.665,-3.274,0.3544,0.1031,-0.1028,0.108,0.57,-9.948,4.6e-05,9.4e-05,0.000634,0.211926532993509,0.0336769646876666,-0.073626853576506
1588,1711303185.07721,1.84984946250916,-15.806,0.665,-3.274,0.3537,0.114,-0.1073,0.127,0.557,-9.944,0.001645,0.000918,-0.000826,0.211226532993509,0.0445769646876666,-0.078126853576506
1589,1711303185.10298,1.87562847137451,-15.807,0.666,-3.274,0.3527,0.1111,-0.1019,0.116,0.574,-9.949,-0.000393,0.000185,-0.001373,0.210226532993509,0.0416769646876666,-0.072726853576506
1590,1711303185.12708,1.89972639083862,-15.809,0.666,-3.273,0.3554,0.1061,-0.1027,0.122,0.584,-9.923,0.000626,0.000208,-0.000774,0.212926532993509,0.0366769646876666,-0.073526853576506
1591,1711303185.15285,1.92549228668213,-15.809,0.666,-3.275,0.3545,0.1071,-0.1006,0.105,0.558,-9.949,-0.000591,0.000993,-0.000673,0.212026532993509,0.0376769646876666,-0.071426853576506
1592,1711303185.17713,1.94977569580078,-15.814,0.665,-3.275,0.3536,0.1111,-0.1062,0.092,0.572,-9.912,0.000764,0.000969,-0.000382,0.211126532993509,0.0416769646876666,-0.077026853576506
1593,1711303185.20278,1.97542643547058,-15.817,0.666,-3.276,0.3535,0.1041,-0.1006,0.132,0.577,-9.923,-0.001093,-0.000536,0.000706,0.211026532993509,0.0346769646876666,-0.071426853576506
1594,1711303185.22782,2.00045943260193,-15.815,0.667,-3.277,0.3544,0.1051,-0.1006,0.128,0.563,-9.936,-0.000104,-0.000462,-0.000903,0.211926532993509,0.0356769646876666,-0.071426853576506
1595,1711303185.254,2.0266432762146,-15.813,0.666,-3.277,0.3544,0.1031,-0.1006,0.12,0.577,-9.96,0.00084,-0.001142,0.000587,0.211926532993509,0.0336769646876666,-0.071426853576506
1596,1711303185.27781,2.05045509338379,-15.814,0.666,-3.277,0.3535,0.1051,-0.105,0.122,0.602,-9.924,-0.000257,-0.000454,0.00026,0.211026532993509,0.0356769646876666,-0.075826853576506
1597,1711303185.30301,2.07564997673035,-15.817,0.665,-3.276,0.3536,0.1081,-0.1007,0.133,0.597,-9.967,-0.000287,-0.000112,6.2e-05,0.211126532993509,0.0386769646876666,-0.071526853576506
1598,1711303185.32776,2.10040259361267,-15.819,0.666,-3.276,0.3535,0.1061,-0.1018,0.122,0.571,-9.931,6.8e-05,-0.000119,0.000147,0.211026532993509,0.0366769646876666,-0.072626853576506
1599,1711303185.35279,2.1254346370697,-15.821,0.665,-3.275,0.3544,0.1041,-0.0995,0.11,0.56,-9.894,-0.000789,-0.00056,0.000157,0.211926532993509,0.0346769646876666,-0.070326853576506
1600,1711303185.37737,2.15001273155212,-15.821,0.666,-3.275,0.3555,0.111,-0.1039,0.115,0.595,-9.953,8.4e-05,-5.1e-05,0.00032,0.213026532993509,0.0415769646876666,-0.074726853576506
1601,1711303185.40253,2.17517566680908,-15.822,0.666,-3.276,0.3554,0.108,-0.1028,0.1,0.59,-9.895,0.000539,0.000108,0.000294,0.212926532993509,0.0385769646876666,-0.073626853576506
1602,1711303185.42729,2.19993782043457,-15.823,0.667,-3.276,0.3546,0.112,-0.1051,0.133,0.586,-9.951,-0.0002,0.000378,-0.001251,0.212126532993509,0.0425769646876666,-0.075926853576506
1603,1711303185.45233,2.22496938705444,-15.823,0.667,-3.278,0.3517,0.1042,-0.103,0.103,0.568,-9.931,-0.000376,0.000985,-0.001236,0.209226532993509,0.0347769646876666,-0.073826853576506
1604,1711303185.47729,2.24993228912354,-15.821,0.667,-3.279,0.3553,0.1011,-0.0994,0.103,0.571,-9.923,-2.3e-05,-0.000322,0.000402,0.212826532993509,0.0316769646876666,-0.070226853576506
1605,1711303185.50236,2.27500772476196,-15.824,0.668,-3.278,0.3535,0.1071,-0.0996,0.107,0.581,-9.94,0.000369,0.001017,0.001034,0.211026532993509,0.0376769646876666,-0.070426853576506
1606,1711303185.52757,2.30020999908447,-15.823,0.668,-3.278,0.3537,0.115,-0.1008,0.117,0.562,-9.923,0.000287,-0.000214,-0.001,0.211226532993509,0.0455769646876666,-0.071626853576506
1607,1711303185.55258,2.32522702217102,-15.825,0.668,-3.277,0.3546,0.114,-0.1051,0.129,0.575,-9.932,0.001045,-0.000865,-2.5e-05,0.212126532993509,0.0445769646876666,-0.075926853576506
1608,1711303185.5775,2.3501410484314,-15.827,0.668,-3.276,0.3535,0.1061,-0.1094,0.116,0.589,-9.922,-0.000389,-0.000987,-0.000252,0.211026532993509,0.0366769646876666,-0.080226853576506
1609,1711303185.60263,2.37527465820312,-15.825,0.669,-3.277,0.3536,0.1071,-0.1062,0.113,0.581,-9.896,8.7e-05,-0.000329,-0.001253,0.211126532993509,0.0376769646876666,-0.077026853576506
1610,1711303185.62749,2.40012907981873,-15.826,0.668,-3.278,0.3536,0.113,-0.1029,0.122,0.573,-9.937,-0.001054,0.00095,-0.001264,0.211126532993509,0.0435769646876666,-0.073726853576506
1611,1711303185.65248,2.42512369155884,-15.827,0.67,-3.278,0.3535,0.1071,-0.1007,0.106,0.577,-9.933,0.000204,0.000108,0.00048,0.211026532993509,0.0376769646876666,-0.071526853576506
1612,1711303185.67832,2.45096182823181,-15.828,0.67,-3.278,0.3535,0.1021,-0.0984,0.096,0.569,-9.903,-4.8e-05,0.00048,-0.001462,0.211026532993509,0.0326769646876666,-0.069226853576506
1613,1711303185.7021,2.47474670410156,-15.827,0.67,-3.279,0.3517,0.1071,-0.0997,0.141,0.59,-9.928,0.000241,0.000446,-0.000169,0.209226532993509,0.0376769646876666,-0.070526853576506
1614,1711303185.72748,2.5001277923584,-15.829,0.67,-3.28,0.3535,0.1021,-0.0984,0.113,0.561,-9.909,-0.000497,0.001347,-0.0004,0.211026532993509,0.0326769646876666,-0.069226853576506
1615,1711303185.75245,2.52509593963623,-15.83,0.668,-3.281,0.3536,0.1081,-0.0974,0.09,0.586,-9.907,0.001034,-0.000349,0.000464,0.211126532993509,0.0386769646876666,-0.068226853576506
1616,1711303185.77738,2.55002784729004,-15.834,0.668,-3.281,0.3553,0.1041,-0.0983,0.113,0.576,-9.94,0.000491,1.2e-05,0.000314,0.212826532993509,0.0346769646876666,-0.069126853576506
1617,1711303185.80223,2.57487177848816,-15.839,0.667,-3.281,0.3544,0.1051,-0.0973,0.116,0.58,-9.937,0.000734,0.000458,-0.000143,0.211926532993509,0.0356769646876666,-0.068126853576506
1618,1711303185.82726,2.59989881515503,-15.839,0.665,-3.281,0.3544,0.1041,-0.0995,0.098,0.569,-9.93,-0.000225,0.000615,-0.000529,0.211926532993509,0.0346769646876666,-0.070326853576506
1619,1711303185.85241,2.62505650520325,-15.84,0.665,-3.282,0.3536,0.1111,-0.1029,0.108,0.577,-9.912,-0.000197,-0.000815,0.000219,0.211126532993509,0.0416769646876666,-0.073726853576506
1620,1711303185.87728,2.64992618560791,-15.84,0.666,-3.283,0.3545,0.1091,-0.0974,0.119,0.584,-9.904,0.000332,0.000529,-0.000577,0.212026532993509,0.0396769646876666,-0.068226853576506
1621,1711303185.90213,2.67477869987488,-15.845,0.668,-3.284,0.3544,0.1031,-0.0984,0.122,0.56,-9.934,-0.000695,0.00067,0.000445,0.211926532993509,0.0336769646876666,-0.069226853576506
1622,1711303185.92722,2.6998598575592,-15.846,0.669,-3.285,0.3555,0.111,-0.0984,0.15,0.585,-9.93,-0.000592,-0.000147,-0.00054,0.213026532993509,0.0415769646876666,-0.069226853576506
1623,1711303185.95232,2.72496104240417,-15.846,0.669,-3.285,0.3535,0.1051,-0.0996,0.139,0.562,-9.917,-3e-05,-0.000799,-0.000273,0.211026532993509,0.0356769646876666,-0.070426853576506
1624,1711303185.97727,2.74991750717163,-15.848,0.67,-3.284,0.3534,0.1002,-0.1006,0.12,0.604,-9.944,0.000725,-0.001022,-0.001541,0.210926532993509,0.0307769646876666,-0.071426853576506
1625,1711303186.0022,2.77483940124512,-15.846,0.67,-3.285,0.3553,0.1041,-0.0939,0.115,0.574,-9.952,-0.000301,0.00072,-0.001003,0.212826532993509,0.0346769646876666,-0.064726853576506
1626,1711303186.02757,2.80021476745605,-15.848,0.669,-3.285,0.3545,0.1061,-0.1006,0.116,0.544,-9.929,0.001146,3.2e-05,-0.000568,0.212026532993509,0.0366769646876666,-0.071426853576506
1627,1711303186.05286,2.82550454139709,-15.85,0.667,-3.285,0.3518,0.1141,-0.0976,0.082,0.579,-9.92,0.000213,-0.000305,5.8e-05,0.209326532993509,0.0446769646876666,-0.068426853576506
1628,1711303186.07692,2.84956002235413,-15.852,0.666,-3.286,0.3563,0.107,-0.0994,0.102,0.572,-9.933,0.000427,0.000671,-0.000452,0.213826532993509,0.0375769646876666,-0.070226853576506
1629,1711303186.10265,2.87529492378235,-15.853,0.666,-3.287,0.3526,0.1061,-0.1018,0.139,0.595,-9.922,-6e-06,-0.000424,-0.000602,0.210126532993509,0.0366769646876666,-0.072626853576506
1630,1711303186.12732,2.89996790885925,-15.854,0.666,-3.287,0.3555,0.114,-0.0995,0.113,0.569,-9.915,-0.000735,0.001113,0.000548,0.213026532993509,0.0445769646876666,-0.070326853576506
1631,1711303186.15346,2.92610025405884,-15.854,0.666,-3.287,0.3544,0.1031,-0.0951,0.119,0.591,-9.954,0.00032,0.000106,0.00052,0.211926532993509,0.0336769646876666,-0.065926853576506
1632,1711303186.1774,2.95004487037659,-15.858,0.668,-3.287,0.3554,0.109,-0.0962,0.137,0.545,-9.929,0.000439,0.000834,4.4e-05,0.212926532993509,0.0395769646876666,-0.067026853576506
1633,1711303186.20341,2.9760570526123,-15.859,0.668,-3.287,0.3488,0.1023,-0.0965,0.119,0.575,-9.964,0.000126,0.000866,-0.00106,0.206326532993509,0.0328769646876666,-0.067326853576506
1634,1711303186.22785,3.00049352645874,-15.86,0.669,-3.287,0.3526,0.1051,-0.0985,0.125,0.583,-9.926,0.000708,-0.001073,0.000485,0.210126532993509,0.0356769646876666,-0.069326853576506
1635,1711303186.25318,3.02582621574402,-15.859,0.67,-3.288,0.3545,0.1071,-0.0973,0.118,0.581,-9.958,-0.000437,0.000197,-0.001231,0.212026532993509,0.0376769646876666,-0.068126853576506
1636,1711303186.27751,3.05015826225281,-15.858,0.669,-3.288,0.3544,0.1011,-0.0984,0.096,0.578,-9.908,0.001426,-0.000838,-0.000719,0.211926532993509,0.0316769646876666,-0.069226853576506
1637,1711303186.30351,3.07615494728088,-15.862,0.669,-3.289,0.3545,0.111,-0.0963,0.138,0.568,-9.937,-0.000926,0.000202,-0.000466,0.212026532993509,0.0415769646876666,-0.067126853576506
1638,1711303186.32763,3.10027575492859,-15.861,0.668,-3.29,0.3535,0.1071,-0.0996,0.102,0.593,-9.913,-0.000368,-0.000797,-0.000668,0.211026532993509,0.0376769646876666,-0.070426853576506
1639,1711303186.35314,3.12578821182251,-15.862,0.668,-3.289,0.3527,0.1131,-0.1041,0.112,0.56,-9.934,-8.3e-05,0.001184,-0.00018,0.210226532993509,0.0436769646876666,-0.074926853576506
1640,1711303186.3777,3.1503427028656,-15.862,0.667,-3.287,0.3535,0.1071,-0.0985,0.106,0.588,-9.931,0.000863,0.000463,-0.001085,0.211026532993509,0.0376769646876666,-0.069326853576506
1641,1711303186.40306,3.17569923400879,-15.864,0.666,-3.288,0.3545,0.112,-0.0974,0.102,0.571,-9.929,-0.00036,-0.000301,-0.000119,0.212026532993509,0.0425769646876666,-0.068226853576506
1642,1711303186.42746,3.20010304450989,-15.866,0.665,-3.288,0.3526,0.1041,-0.0941,0.111,0.574,-9.921,-0.000608,0.00018,0.000513,0.210126532993509,0.0346769646876666,-0.064926853576506
1643,1711303186.45413,3.22677683830261,-15.867,0.665,-3.288,0.3527,0.1101,-0.0997,0.145,0.587,-9.944,0.000355,0.000205,-0.000493,0.210226532993509,0.0406769646876666,-0.070526853576506
1644,1711303186.47773,3.25037813186646,-15.867,0.665,-3.288,0.3535,0.1021,-0.0962,0.133,0.554,-9.939,-2.9e-05,0.000967,9.1e-05,0.211026532993509,0.0326769646876666,-0.067026853576506
1645,1711303186.50228,3.27492737770081,-15.867,0.666,-3.288,0.3536,0.114,-0.0986,0.111,0.572,-9.91,-0.000259,-0.00127,-0.000235,0.211126532993509,0.0445769646876666,-0.069426853576506
1646,1711303186.52727,3.29991698265076,-15.865,0.667,-3.289,0.3553,0.1041,-0.0972,0.111,0.587,-9.97,-0.001285,0.000165,3.1e-05,0.212826532993509,0.0346769646876666,-0.068026853576506
1647,1711303186.55238,3.32502031326294,-15.864,0.668,-3.291,0.3545,0.11,-0.1018,0.113,0.595,-9.942,-0.000325,-0.001346,-0.001119,0.212026532993509,0.0405769646876666,-0.072626853576506
1648,1711303186.57761,3.3502516746521,-15.865,0.67,-3.294,0.3535,0.1071,-0.0996,0.141,0.58,-9.952,-0.001322,-0.001047,0.001221,0.211026532993509,0.0376769646876666,-0.070426853576506
1649,1711303186.60282,3.37546157836914,-15.865,0.67,-3.295,0.3563,0.1041,-0.0961,0.095,0.575,-9.954,-0.00228,-0.001093,-0.000143,0.213826532993509,0.0346769646876666,-0.066926853576506
1650,1711303186.62758,3.40022015571594,-15.87,0.67,-3.297,0.3526,0.1041,-0.0985,0.103,0.58,-9.94,-0.000499,0.000255,0.000769,0.210126532993509,0.0346769646876666,-0.069326853576506
1651,1711303186.6524,3.42504286766052,-15.87,0.669,-3.297,0.3554,0.1051,-0.0994,0.114,0.587,-9.929,-0.001065,-0.0003,-0.000509,0.212926532993509,0.0356769646876666,-0.070226853576506
1652,1711303186.67757,3.45021176338196,-15.87,0.668,-3.299,0.3535,0.1051,-0.0985,0.123,0.574,-9.914,-0.002416,7.4e-05,-0.00039,0.211026532993509,0.0356769646876666,-0.069326853576506
1653,1711303186.70375,3.47639679908752,-15.87,0.667,-3.3,0.3545,0.1071,-0.0962,0.128,0.583,-9.915,9.5e-05,-0.000413,6.1e-05,0.212026532993509,0.0376769646876666,-0.067026853576506
1654,1711303186.72773,3.50037574768066,-15.87,0.666,-3.301,0.3534,0.0992,-0.0973,0.109,0.572,-9.956,0.000201,-0.000699,0.000283,0.210926532993509,0.0297769646876666,-0.068126853576506
1655,1711303186.75244,3.52508163452148,-15.87,0.665,-3.299,0.3544,0.1011,-0.1038,0.132,0.555,-9.938,0.001738,0.000121,-0.000308,0.211926532993509,0.0316769646876666,-0.074626853576506
1656,1711303186.77747,3.55011034011841,-15.869,0.666,-3.299,0.3535,0.1031,-0.0995,0.119,0.598,-9.967,0.001176,0.000565,0.000237,0.211026532993509,0.0336769646876666,-0.070326853576506
1657,1711303186.80279,3.57543754577637,-15.868,0.667,-3.299,0.3527,0.1131,-0.1019,0.132,0.6,-9.918,-0.000648,0.000341,-0.000363,0.210226532993509,0.0436769646876666,-0.072726853576506
1658,1711303186.82732,3.59996223449707,-15.87,0.668,-3.299,0.3536,0.1101,-0.0996,0.13,0.578,-9.926,0.000368,0.000488,-0.000398,0.211126532993509,0.0406769646876666,-0.070426853576506
1659,1711303186.85243,3.62507557868958,-15.868,0.669,-3.299,0.3535,0.1021,-0.0995,0.105,0.574,-9.934,0.002131,0.000202,-8.3e-05,0.211026532993509,0.0326769646876666,-0.070326853576506
1660,1711303186.87758,3.65022444725037,-15.869,0.667,-3.298,0.3516,0.1012,-0.0985,0.104,0.577,-9.93,0.000248,-0.000719,-0.000289,0.209126532993509,0.0317769646876666,-0.069326853576506
1661,1711303186.90281,3.67545080184937,-15.867,0.668,-3.296,0.3544,0.1051,-0.105,0.098,0.575,-9.932,0.001377,-8.7e-05,-0.000273,0.211926532993509,0.0356769646876666,-0.075826853576506
1662,1711303186.92715,3.6997926235199,-15.865,0.668,-3.295,0.3516,0.1042,-0.0986,0.103,0.541,-9.931,-0.001394,-0.00032,0.000392,0.209126532993509,0.0347769646876666,-0.069426853576506
1663,1711303186.95235,3.72498989105225,-15.864,0.667,-3.296,0.3516,0.1012,-0.0963,0.096,0.588,-9.933,0.000271,8e-06,-0.001208,0.209126532993509,0.0317769646876666,-0.067126853576506
1664,1711303186.977,3.74964308738708,-15.862,0.668,-3.293,0.3545,0.1061,-0.1017,0.1,0.536,-9.935,0.001026,0.000593,-0.000348,0.212026532993509,0.0366769646876666,-0.072526853576506
1665,1711303187.00296,3.77560520172119,-15.859,0.668,-3.291,0.3536,0.1101,-0.1007,0.107,0.556,-9.892,0.000913,0.001031,8.7e-05,0.211126532993509,0.0406769646876666,-0.071526853576506
1666,1711303187.02711,3.7997567653656,-15.86,0.668,-3.288,0.3545,0.111,-0.1018,0.099,0.569,-9.918,0.001419,0.001865,-0.000751,0.212026532993509,0.0415769646876666,-0.072626853576506
1667,1711303187.05236,3.82500004768372,-15.863,0.669,-3.287,0.3544,0.1021,-0.0995,0.129,0.564,-9.947,0.001552,-0.000618,-0.000952,0.211926532993509,0.0326769646876666,-0.070326853576506
1668,1711303187.07714,3.84978342056274,-15.861,0.669,-3.285,0.3544,0.1041,-0.105,0.118,0.581,-9.943,0.002071,0.001116,-0.000155,0.211926532993509,0.0346769646876666,-0.075826853576506
1669,1711303187.10299,3.87562990188599,-15.86,0.669,-3.283,0.3535,0.1022,-0.105,0.13,0.406,-9.941,0.003752,0.000156,0.001079,0.211026532993509,0.0327769646876666,-0.075826853576506
1670,1711303187.12692,3.89956593513489,-15.858,0.669,-3.283,0.3526,0.1032,-0.104,0.138,0.585,-9.887,0.001586,-0.00017,-0.000491,0.210126532993509,0.0337769646876666,-0.074826853576506
1671,1711303187.15286,3.92550754547119,-15.857,0.67,-3.282,0.3554,0.1061,-0.0984,0.112,0.587,-9.968,0.000784,0.000669,-0.001224,0.212926532993509,0.0366769646876666,-0.069226853576506
1672,1711303187.17719,3.9498291015625,-15.856,0.67,-3.281,0.3526,0.1041,-0.0985,0.094,0.569,-9.95,0.000446,-0.001913,-0.000492,0.210126532993509,0.0346769646876666,-0.069326853576506
1673,1711303187.20269,3.9753303527832,-15.854,0.67,-3.28,0.3563,0.1031,-0.1005,0.122,0.55,-9.915,0.000211,0.000161,0.000393,0.213826532993509,0.0336769646876666,-0.071326853576506
1674,1711303187.22787,4.00051069259644,-15.855,0.67,-3.28,0.3563,0.1051,-0.1038,0.116,0.564,-9.913,0.00125,0.000957,-0.000746,0.213826532993509,0.0356769646876666,-0.074626853576506
1675,1711303187.2529,4.02554178237915,-15.854,0.67,-3.281,0.3544,0.1061,-0.0984,0.088,0.578,-9.935,-0.000545,-3.3e-05,-0.000816,0.211926532993509,0.0366769646876666,-0.069226853576506
1676,1711303187.27675,4.04939341545105,-15.854,0.671,-3.28,0.3554,0.1051,-0.0994,0.111,0.544,-9.951,0.000633,0.000798,-0.001085,0.212926532993509,0.0356769646876666,-0.070226853576506
1677,1711303187.30307,4.0757098197937,-15.852,0.671,-3.28,0.3535,0.1031,-0.1028,0.107,0.557,-9.932,-0.000738,0.000746,-0.001055,0.211026532993509,0.0336769646876666,-0.073626853576506
1678,1711303187.32757,4.10021162033081,-15.85,0.671,-3.28,0.3572,0.104,-0.1004,0.112,0.574,-9.937,0.000308,-0.000927,0.000647,0.214726532993509,0.0345769646876666,-0.071226853576506
1679,1711303187.35298,4.12562870979309,-15.852,0.672,-3.28,0.3545,0.1071,-0.1017,0.111,0.598,-9.914,0.00065,0.000153,-0.000377,0.212026532993509,0.0376769646876666,-0.072526853576506
1680,1711303187.37763,4.15027379989624,-15.851,0.672,-3.28,0.3554,0.108,-0.1072,0.136,0.594,-9.935,0.001298,0.000225,0.000757,0.212926532993509,0.0385769646876666,-0.078026853576506
1681,1711303187.40266,4.17530369758606,-15.851,0.673,-3.279,0.3544,0.1041,-0.1017,0.112,0.558,-9.922,0.001134,-0.001073,0.000474,0.211926532993509,0.0346769646876666,-0.072526853576506
1682,1711303187.4279,4.20053887367249,-15.85,0.674,-3.276,0.3563,0.1041,-0.1005,0.098,0.54,-9.903,0.002689,0.000174,0.000299,0.213826532993509,0.0346769646876666,-0.071326853576506
1683,1711303187.45283,4.22547197341919,-15.852,0.674,-3.275,0.3563,0.1041,-0.1005,0.119,0.475,-9.9,-0.00024,-2.2e-05,-0.000467,0.213826532993509,0.0346769646876666,-0.071326853576506
1684,1711303187.47771,4.25035572052002,-15.85,0.675,-3.273,0.3544,0.1051,-0.0984,0.12,0.582,-9.923,0.001468,0.000738,-0.000321,0.211926532993509,0.0356769646876666,-0.069226853576506
1685,1711303187.50294,4.27558302879333,-15.848,0.674,-3.272,0.3554,0.1061,-0.1016,0.117,0.562,-9.95,0.001216,-0.000241,0.000415,0.212926532993509,0.0366769646876666,-0.072426853576506
1686,1711303187.52771,4.30035662651062,-15.847,0.674,-3.271,0.3554,0.1061,-0.0984,0.115,0.521,-9.932,-0.00029,0.000368,-0.00084,0.212926532993509,0.0366769646876666,-0.069226853576506
1687,1711303187.5525,4.32514643669128,-15.845,0.674,-3.271,0.3526,0.1061,-0.0974,0.141,0.583,-9.987,0.001287,-0.000772,0.00085,0.210126532993509,0.0366769646876666,-0.068226853576506
1688,1711303187.57765,4.35029625892639,-15.844,0.674,-3.271,0.3555,0.112,-0.1006,0.156,0.518,-9.923,0.001791,-0.000448,-0.000318,0.213026532993509,0.0425769646876666,-0.071426853576506
1689,1711303187.60257,4.37521457672119,-15.843,0.674,-3.27,0.3545,0.1061,-0.1006,0.13,0.55,-9.976,0.000664,0.000418,-0.00097,0.212026532993509,0.0366769646876666,-0.071426853576506
1690,1711303187.62781,4.40045547485352,-15.846,0.674,-3.268,0.3554,0.109,-0.1039,0.14,0.586,-9.955,0.000774,4.4e-05,0.00055,0.212926532993509,0.0395769646876666,-0.074726853576506
1691,1711303187.65253,4.42517375946045,-15.848,0.674,-3.267,0.3553,0.1031,-0.0994,0.115,0.563,-9.938,0.001089,0.000112,-0.000812,0.212826532993509,0.0336769646876666,-0.070226853576506
1692,1711303187.67757,4.4502124786377,-15.848,0.675,-3.266,0.3545,0.1071,-0.0995,0.11,0.565,-9.964,0.001567,-1.5e-05,0.000683,0.212026532993509,0.0376769646876666,-0.070326853576506
1693,1711303187.7025,4.47514081001282,-15.848,0.675,-3.266,0.3546,0.117,-0.1029,0.116,0.549,-9.905,-0.000602,0.000923,0.00083,0.212126532993509,0.0475769646876666,-0.073726853576506
1694,1711303187.72718,4.49982762336731,-15.852,0.675,-3.266,0.3554,0.1051,-0.0972,0.134,0.603,-9.944,-0.000354,0.000526,-0.000346,0.212926532993509,0.0356769646876666,-0.068026853576506
1695,1711303187.75216,4.52480268478394,-15.854,0.674,-3.267,0.3554,0.1061,-0.1027,0.111,0.573,-9.965,-0.000695,-0.001011,-0.001206,0.212926532993509,0.0366769646876666,-0.073526853576506
1696,1711303187.77751,4.55015230178833,-15.853,0.673,-3.269,0.3563,0.1051,-0.0994,0.141,0.727,-9.989,-0.004543,-0.001825,-0.000424,0.213826532993509,0.0356769646876666,-0.070226853576506
1697,1711303187.80266,4.57530498504639,-15.856,0.674,-3.268,0.3526,0.1051,-0.1018,0.139,0.622,-9.943,0.001079,-0.000521,5.2e-05,0.210126532993509,0.0356769646876666,-0.072626853576506
1698,1711303187.82757,4.60021114349365,-15.855,0.675,-3.268,0.3563,0.109,-0.1005,0.131,0.514,-9.933,0.001322,0.001785,5.5e-05,0.213826532993509,0.0395769646876666,-0.071326853576506
1699,1711303187.85255,4.62518978118896,-15.854,0.675,-3.267,0.3554,0.1061,-0.106,0.11,0.554,-9.939,0.000929,-0.000613,-0.000525,0.212926532993509,0.0366769646876666,-0.076826853576506
1700,1711303187.87749,4.65013647079468,-15.853,0.675,-3.266,0.3554,0.108,-0.1006,0.122,0.586,-9.934,0.001237,0.000211,4.5e-05,0.212926532993509,0.0385769646876666,-0.071426853576506
1701,1711303187.90278,4.67542457580566,-15.854,0.675,-3.266,0.3526,0.1061,-0.0974,0.111,0.571,-9.937,-0.00091,0.000195,-0.000775,0.210126532993509,0.0366769646876666,-0.068226853576506
1702,1711303187.92733,4.69997715950012,-15.857,0.674,-3.264,0.3573,0.108,-0.0994,0.004,0.902,-10.319,-0.005201,0.010254,-0.003943,0.214826532993509,0.0385769646876666,-0.070226853576506
1703,1711303187.95245,4.72509622573853,-15.855,0.674,-3.265,0.3554,0.11,-0.0995,0.087,0.556,-9.944,-0.006556,-0.000689,-0.000666,0.212926532993509,0.0405769646876666,-0.070326853576506
1704,1711303187.97748,4.75011968612671,-15.859,0.675,-3.262,0.3535,0.1041,-0.1039,0.123,0.431,-9.946,0.004263,0.001212,-0.00083,0.211026532993509,0.0346769646876666,-0.074726853576506
1705,1711303188.00287,4.77551817893982,-15.859,0.675,-3.265,0.3536,0.1101,-0.0963,0.127,0.655,-9.907,-0.002092,-0.000521,0.000147,0.211126532993509,0.0406769646876666,-0.067126853576506
1706,1711303188.02716,4.79979920387268,-15.859,0.676,-3.266,0.3563,0.106,-0.0983,0.135,0.511,-9.956,-0.000441,0.000601,0.000886,0.213826532993509,0.0365769646876666,-0.069126853576506
1707,1711303188.05237,4.82501149177551,-15.86,0.676,-3.264,0.3554,0.1051,-0.0983,0.116,0.615,-9.919,0.001856,0.000634,-0.000454,0.212926532993509,0.0356769646876666,-0.069126853576506
1708,1711303188.07731,4.84995031356812,-15.859,0.677,-3.263,0.3545,0.11,-0.1007,0.117,0.554,-9.921,0.00151,-0.00051,0.000977,0.212026532993509,0.0405769646876666,-0.071526853576506
1709,1711303188.10256,4.8752064704895,-15.857,0.676,-3.262,0.3554,0.1071,-0.1006,0.132,0.572,-9.934,-0.00049,-0.000558,-0.000417,0.212926532993509,0.0376769646876666,-0.071426853576506
1710,1711303188.12717,4.89981865882874,-15.857,0.675,-3.264,0.3572,0.104,-0.0993,0.091,0.58,-9.951,-0.001133,-0.001122,-0.000494,0.214726532993509,0.0345769646876666,-0.070126853576506
1711,1711303188.15205,4.9246973991394,-15.856,0.675,-3.267,0.3526,0.1042,-0.1029,0.113,0.577,-9.928,-0.001328,-0.00047,0.000409,0.210126532993509,0.0347769646876666,-0.073726853576506
1712,1711303188.17727,4.94991397857666,-15.854,0.675,-3.266,0.3545,0.1081,-0.0973,0.105,0.607,-10.035,0.006276,0.000617,-0.001915,0.212026532993509,0.0386769646876666,-0.068126853576506
1713,1711303188.20259,4.97523069381714,-15.858,0.675,-3.266,0.3545,0.1061,-0.1039,0.09,0.73,-9.875,0.00348,0.000736,-0.000667,0.212026532993509,0.0366769646876666,-0.074726853576506
1714,1711303188.22717,4.99981665611267,-15.859,0.675,-3.26,0.3563,0.1051,-0.0994,0.104,0.642,-9.944,0.009976,0.000904,-0.001191,0.213826532993509,0.0356769646876666,-0.070226853576506
1715,1711303188.25287,5.02551460266113,-15.857,0.676,-3.266,0.3546,0.112,-0.104,0.139,0.45,-9.866,0.000756,0.000326,-0.000428,0.212126532993509,0.0425769646876666,-0.074826853576506
1716,1711303188.27714,5.04978251457214,-15.856,0.676,-3.267,0.3553,0.1041,-0.1005,0.13,0.409,-9.953,-0.001713,-0.000148,0.000673,0.212826532993509,0.0346769646876666,-0.071326853576506
1717,1711303188.30257,5.07521224021912,-15.855,0.668,-3.265,0.3536,0.1121,-0.1018,0.899,-0.547,-12.309,0.02371,0.019484,-0.001993,0.211126532993509,0.0426769646876666,-0.072626853576506
1718,1711303188.32763,5.10027074813843,-15.857,0.676,-3.265,0.3563,0.1031,-0.1005,0.203,0.298,-9.832,0.001323,0.001218,-0.002178,0.213826532993509,0.0336769646876666,-0.071326853576506
1719,1711303188.35281,5.12545609474182,-15.856,0.673,-3.266,0.3544,0.1051,-0.0995,0.014,1.032,-9.725,-0.003059,-0.002933,0.000211,0.211926532993509,0.0356769646876666,-0.070326853576506
1720,1711303188.3775,5.15014123916626,-15.854,0.673,-3.268,0.3554,0.1051,-0.1027,0.18,0.163,-9.917,-0.001248,-0.002255,0.000677,0.212926532993509,0.0356769646876666,-0.073526853576506
1721,1711303188.4026,5.17524385452271,-15.853,0.671,-3.267,0.3545,0.1071,-0.0962,0.106,0.533,-9.844,-0.005717,-0.004071,-0.000194,0.212026532993509,0.0376769646876666,-0.067026853576506
1722,1711303188.4278,5.20044279098511,-15.854,0.67,-3.267,0.3562,0.1021,-0.1026,0.061,0.744,-9.914,-0.000486,-0.00165,0.000393,0.213726532993509,0.0326769646876666,-0.073426853576506
1723,1711303188.45247,5.22511672973633,-15.857,0.67,-3.268,0.3554,0.1071,-0.1006,0.148,0.408,-9.934,0.002443,0.002285,-0.000824,0.212926532993509,0.0376769646876666,-0.071426853576506
1724,1711303188.47773,5.25037622451782,-15.855,0.669,-3.268,0.3535,0.1061,-0.0941,0.129,0.637,-9.824,-0.00171,-0.001547,-0.000101,0.211026532993509,0.0366769646876666,-0.064926853576506
1725,1711303188.5028,5.27543902397156,-15.854,0.67,-3.269,0.3563,0.1041,-0.0972,0.073,0.591,-9.956,-0.00049,0.001235,0.000478,0.213826532993509,0.0346769646876666,-0.068026853576506
1726,1711303188.52769,5.30033302307129,-15.854,0.669,-3.27,0.3544,0.1051,-0.0984,0.104,0.606,-9.974,-0.001192,-0.000377,-0.000949,0.211926532993509,0.0356769646876666,-0.069226853576506
1727,1711303188.5524,5.32503914833069,-15.852,0.669,-3.27,0.3535,0.1051,-0.1007,0.093,0.631,-9.968,0.001296,0.001086,-0.00019,0.211026532993509,0.0356769646876666,-0.071526853576506
1728,1711303188.57763,5.35027074813843,-15.85,0.669,-3.271,0.3564,0.115,-0.1028,0.112,0.554,-9.932,-3e-06,-0.000161,0.000463,0.213926532993509,0.0455769646876666,-0.073626853576506
1729,1711303188.60279,5.37543606758118,-15.852,0.669,-3.271,0.3526,0.1081,-0.0997,0.092,0.626,-9.914,-0.00047,-0.00035,0.000608,0.210126532993509,0.0386769646876666,-0.070526853576506
1730,1711303188.62757,5.40021681785583,-15.852,0.669,-3.271,0.3563,0.1041,-0.1016,0.081,0.606,-9.912,-0.001114,-0.00075,0.000164,0.213826532993509,0.0346769646876666,-0.072426853576506
1731,1711303188.65233,5.42497420310974,-15.85,0.67,-3.271,0.3564,0.11,-0.106,0.113,0.525,-9.949,0.00114,0.001606,-0.000153,0.213926532993509,0.0405769646876666,-0.076826853576506
1732,1711303188.67737,5.45001792907715,-15.851,0.671,-3.27,0.3563,0.107,-0.1038,0.121,0.547,-9.939,0.001131,0.000967,-0.000935,0.213826532993509,0.0375769646876666,-0.074626853576506
1733,1711303188.70264,5.47528314590454,-15.851,0.67,-3.271,0.3554,0.1041,-0.1049,0.094,0.597,-9.73,-0.003465,-0.006502,-0.000153,0.212926532993509,0.0346769646876666,-0.075726853576506
1734,1711303188.7276,5.50024151802063,-15.848,0.673,-3.27,0.3554,0.11,-0.0984,0.15,0.464,-9.967,-0.000378,0.00102,0.000167,0.212926532993509,0.0405769646876666,-0.069226853576506
1735,1711303188.75226,5.52490401268005,-15.848,0.672,-3.27,0.3553,0.1041,-0.0972,0.109,0.705,-9.905,-0.00153,-0.003824,0.000141,0.212826532993509,0.0346769646876666,-0.068026853576506
1736,1711303188.77742,5.55005979537964,-15.851,0.672,-3.27,0.3564,0.111,-0.1005,0.12,0.556,-9.95,-0.001087,2.1e-05,1.3e-05,0.213926532993509,0.0415769646876666,-0.071326853576506
1737,1711303188.80233,5.57496929168701,-15.851,0.672,-3.27,0.3535,0.1061,-0.0985,0.176,0.525,-10.094,0.001151,0.00166,-0.000653,0.211026532993509,0.0366769646876666,-0.069326853576506
1738,1711303188.82728,5.59992694854736,-15.852,0.671,-3.27,0.3563,0.1051,-0.1049,0.096,0.612,-9.951,0.001012,-0.000454,-0.00021,0.213826532993509,0.0356769646876666,-0.075726853576506
1739,1711303188.85252,5.62516832351685,-15.851,0.671,-3.271,0.3563,0.1051,-0.1005,0.085,0.508,-9.868,0.000168,-0.0015,0.000141,0.213826532993509,0.0356769646876666,-0.071326853576506
1740,1711303188.87756,5.65020298957825,-15.85,0.672,-3.27,0.3563,0.106,-0.1016,0.117,0.622,-9.961,0.000142,0.000713,-5.4e-05,0.213826532993509,0.0365769646876666,-0.072426853576506
1741,1711303188.90241,5.67505288124084,-15.849,0.672,-3.268,0.3544,0.1041,-0.1028,0.112,0.587,-9.932,0.001398,-5.1e-05,-0.000625,0.211926532993509,0.0346769646876666,-0.073626853576506
1742,1711303188.92742,5.70006561279297,-15.85,0.672,-3.267,0.3553,0.1031,-0.0983,0.128,0.516,-9.921,0.00044,-3.1e-05,-0.001749,0.212826532993509,0.0336769646876666,-0.069126853576506
1743,1711303188.9526,5.72524070739746,-15.853,0.674,-3.267,0.3536,0.1101,-0.1018,0.097,0.578,-9.939,-0.000213,0.001021,-0.000835,0.211126532993509,0.0406769646876666,-0.072626853576506
1744,1711303188.97731,5.74995064735413,-15.853,0.674,-3.267,0.3563,0.108,-0.1016,0.117,0.565,-9.895,-0.000221,0.000366,-0.000349,0.213826532993509,0.0385769646876666,-0.072426853576506
1745,1711303189.0023,5.77494645118713,-15.854,0.674,-3.267,0.3553,0.1031,-0.0983,0.118,0.564,-9.937,-0.000275,-0.000983,-0.00018,0.212826532993509,0.0336769646876666,-0.069126853576506
1746,1711303189.02739,5.80003809928894,-15.853,0.674,-3.268,0.3553,0.1021,-0.0983,0.125,0.545,-9.906,7.5e-05,-0.001057,2e-05,0.212826532993509,0.0326769646876666,-0.069126853576506
1747,1711303189.05213,5.82477879524231,-15.854,0.673,-3.269,0.3581,0.102,-0.0981,0.131,0.58,-9.948,-0.001409,-0.000333,0.000266,0.215626532993509,0.0325769646876666,-0.068926853576506
1748,1711303189.07727,5.84991645812988,-15.851,0.673,-3.27,0.3553,0.1041,-0.1016,0.125,0.577,-9.945,-0.00143,3.2e-05,-0.00027,0.212826532993509,0.0346769646876666,-0.072426853576506
1749,1711303189.1025,5.87514042854309,-15.852,0.674,-3.269,0.3554,0.1071,-0.0984,0.115,0.54,-9.91,-4.8e-05,0.000434,-0.00071,0.212926532993509,0.0376769646876666,-0.069226853576506
1750,1711303189.12724,5.89988160133362,-15.851,0.674,-3.269,0.3563,0.1051,-0.1016,0.11,0.59,-9.927,-0.000836,-0.000386,-3.5e-05,0.213826532993509,0.0356769646876666,-0.072426853576506
1751,1711303189.15233,5.92497205734253,-15.852,0.674,-3.269,0.3544,0.1051,-0.1028,0.116,0.587,-9.939,-0.000236,-0.000362,0.000151,0.211926532993509,0.0356769646876666,-0.073626853576506
1752,1711303189.17764,5.95028352737427,-15.852,0.674,-3.269,0.3544,0.1011,-0.1006,0.119,0.587,-9.937,-0.000266,3.6e-05,0.00108,0.211926532993509,0.0316769646876666,-0.071426853576506
1753,1711303189.20212,5.97476506233215,-15.85,0.675,-3.268,0.3544,0.1041,-0.1006,0.132,0.577,-9.934,0.000354,0.001076,-0.000458,0.211926532993509,0.0346769646876666,-0.071426853576506
1754,1711303189.22691,5.99955105781555,-15.849,0.675,-3.268,0.3545,0.1061,-0.0995,0.138,0.573,-9.971,2e-05,3e-05,-0.000543,0.212026532993509,0.0366769646876666,-0.070326853576506
1755,1711303189.25224,6.02487969398499,-15.852,0.676,-3.268,0.3554,0.108,-0.0962,0.107,0.576,-9.94,-1e-06,0.00046,-0.000765,0.212926532993509,0.0385769646876666,-0.067026853576506
1756,1711303189.27717,6.0498149394989,-15.852,0.676,-3.268,0.3554,0.1051,-0.0972,0.12,0.556,-9.952,6.1e-05,-7.7e-05,-0.00026,0.212926532993509,0.0356769646876666,-0.068026853576506
1757,1711303189.30187,6.07451558113098,-15.851,0.675,-3.267,0.3564,0.115,-0.0995,0.135,0.577,-9.933,0.001704,9.6e-05,0.000531,0.213926532993509,0.0455769646876666,-0.070326853576506
1758,1711303189.32766,6.10030794143677,-15.855,0.675,-3.266,0.3553,0.1021,-0.0983,0.102,0.586,-9.908,0.000504,-0.00028,-2.7e-05,0.212826532993509,0.0326769646876666,-0.069126853576506
1759,1711303189.35288,6.12552046775818,-15.854,0.674,-3.265,0.3563,0.107,-0.1038,0.118,0.583,-9.929,0.000396,-0.000679,-0.000194,0.213826532993509,0.0375769646876666,-0.074626853576506
1760,1711303189.37716,6.1498064994812,-15.855,0.675,-3.265,0.3546,0.114,-0.1062,0.133,0.586,-9.914,1.9e-05,0.000179,0.00041,0.212126532993509,0.0445769646876666,-0.077026853576506
1761,1711303189.4026,6.17524266242981,-15.855,0.675,-3.265,0.3545,0.112,-0.0996,0.115,0.557,-9.899,0.000545,-0.000278,-0.002386,0.212026532993509,0.0425769646876666,-0.070426853576506
1762,1711303189.42769,6.20033073425293,-15.855,0.676,-3.265,0.3553,0.1031,-0.0983,0.106,0.594,-9.932,-0.000567,0.000284,-0.000121,0.212826532993509,0.0336769646876666,-0.069126853576506
1763,1711303189.45301,6.22565054893494,-15.855,0.675,-3.266,0.3545,0.1071,-0.0984,0.092,0.547,-9.933,0.000501,0.000299,-0.000556,0.212026532993509,0.0376769646876666,-0.069226853576506
1764,1711303189.47784,6.25048065185547,-15.855,0.675,-3.266,0.3562,0.1021,-0.1004,0.105,0.556,-9.93,0.000713,-0.000934,-0.000409,0.213726532993509,0.0326769646876666,-0.071226853576506
1765,1711303189.50262,6.27526211738586,-15.852,0.674,-3.267,0.3554,0.1061,-0.1005,0.091,0.583,-9.904,-0.00018,-0.000842,-0.00021,0.212926532993509,0.0366769646876666,-0.071326853576506
1766,1711303189.52775,6.30039143562317,-15.854,0.675,-3.268,0.3563,0.109,-0.0994,0.073,0.596,-9.934,-0.001318,0.00062,-0.000398,0.213826532993509,0.0395769646876666,-0.070226853576506
1767,1711303189.55283,6.32547211647034,-15.854,0.674,-3.268,0.3555,0.113,-0.1017,0.112,0.578,-9.95,-4.8e-05,0.000501,-0.000614,0.213026532993509,0.0435769646876666,-0.072526853576506
1768,1711303189.57773,6.35036969184875,-15.853,0.675,-3.269,0.3554,0.1051,-0.0983,0.102,0.563,-9.946,-0.000719,0.00053,-0.001037,0.212926532993509,0.0356769646876666,-0.069126853576506
1769,1711303189.60248,6.37512421607971,-15.849,0.675,-3.269,0.3572,0.107,-0.0993,0.121,0.561,-9.917,-0.000598,0.000272,-0.000668,0.214726532993509,0.0375769646876666,-0.070126853576506
1770,1711303189.6277,6.40034484863281,-15.85,0.675,-3.269,0.3545,0.1081,-0.0973,0.12,0.57,-9.913,-0.00022,0.000247,0.000131,0.212026532993509,0.0386769646876666,-0.068126853576506
1771,1711303189.65245,6.42509245872498,-15.849,0.676,-3.269,0.3563,0.105,-0.0972,0.131,0.543,-9.955,0.000104,0.000575,0.000489,0.213826532993509,0.0355769646876666,-0.068026853576506
1772,1711303189.67762,6.45026659965515,-15.85,0.676,-3.268,0.3572,0.105,-0.0971,0.104,0.577,-9.965,0.000837,-0.000542,0.000595,0.214726532993509,0.0355769646876666,-0.067926853576506
1773,1711303189.70286,6.47550249099731,-15.849,0.676,-3.268,0.3553,0.1021,-0.0983,0.112,0.556,-9.944,0.001081,-0.000551,0.000498,0.212826532993509,0.0326769646876666,-0.069126853576506
1774,1711303189.72755,6.50019717216492,-15.849,0.675,-3.267,0.3563,0.1041,-0.0994,0.109,0.595,-9.914,0.000599,0.00012,0.000298,0.213826532993509,0.0346769646876666,-0.070226853576506
1775,1711303189.75245,6.52509641647339,-15.848,0.673,-3.267,0.3572,0.103,-0.0971,0.105,0.579,-9.922,-0.000316,-0.000935,-0.000328,0.214726532993509,0.0335769646876666,-0.067926853576506
1776,1711303189.77727,6.54991579055786,-15.848,0.673,-3.269,0.3554,0.1061,-0.0951,0.11,0.568,-9.983,9.5e-05,-0.000321,-7e-06,0.212926532993509,0.0366769646876666,-0.065926853576506
1777,1711303189.80243,6.57506918907166,-15.846,0.672,-3.269,0.3555,0.112,-0.0984,0.103,0.586,-9.918,-0.000128,0.000511,-0.000181,0.213026532993509,0.0425769646876666,-0.069226853576506
1778,1711303189.82736,6.59999942779541,-15.844,0.671,-3.27,0.3582,0.107,-0.0993,0.084,0.526,-9.938,-0.000529,0.000256,0.000376,0.215726532993509,0.0375769646876666,-0.070126853576506
1779,1711303189.85236,6.62500095367432,-15.843,0.669,-3.271,0.3554,0.1041,-0.1027,0.111,0.569,-9.917,-0.000348,-9.7e-05,-0.00052,0.212926532993509,0.0346769646876666,-0.073526853576506
1780,1711303189.87749,6.65013837814331,-15.842,0.669,-3.271,0.3554,0.1071,-0.0973,0.098,0.585,-9.952,0.000689,-0.000562,-0.000226,0.212926532993509,0.0376769646876666,-0.068126853576506
1781,1711303189.90226,6.67490410804749,-15.846,0.67,-3.271,0.3544,0.1021,-0.094,0.137,0.599,-9.943,0.00051,0.000113,-0.001177,0.211926532993509,0.0326769646876666,-0.064826853576506
1782,1711303189.9275,6.70014309883118,-15.848,0.67,-3.272,0.3562,0.1021,-0.0993,0.137,0.581,-9.936,0.0008,-0.001086,-0.000312,0.213726532993509,0.0326769646876666,-0.070126853576506
1783,1711303189.95243,6.72507524490356,-15.85,0.67,-3.273,0.3554,0.1051,-0.0972,0.115,0.573,-9.945,-0.000672,-0.000134,0.000684,0.212926532993509,0.0356769646876666,-0.068026853576506
1784,1711303189.9774,6.75004529953003,-15.849,0.671,-3.273,0.3553,0.1031,-0.0983,0.116,0.59,-9.936,-4e-06,-0.000593,0.00064,0.212826532993509,0.0336769646876666,-0.069126853576506
1785,1711303190.0023,6.77493906021118,-15.849,0.67,-3.273,0.3572,0.1021,-0.0949,0.129,0.552,-9.942,0.000569,-0.000296,5e-05,0.214726532993509,0.0326769646876666,-0.065726853576506
1786,1711303190.02708,6.79971885681152,-15.85,0.67,-3.272,0.3544,0.1041,-0.1039,0.124,0.6,-9.931,-0.00031,0.000748,0.000594,0.211926532993509,0.0346769646876666,-0.074726853576506
1787,1711303190.05233,6.82497787475586,-15.849,0.67,-3.272,0.3563,0.1041,-0.0972,0.105,0.586,-9.929,0.001101,0.001372,-0.000864,0.213826532993509,0.0346769646876666,-0.068026853576506
1788,1711303190.07719,6.84982919692993,-15.849,0.671,-3.273,0.3544,0.1021,-0.1028,0.119,0.577,-9.944,0.001471,0.001128,0.00117,0.211926532993509,0.0326769646876666,-0.073626853576506
1789,1711303190.10214,6.8747878074646,-15.847,0.67,-3.272,0.3536,0.1101,-0.0985,0.114,0.556,-9.921,-0.000824,-0.000697,8.4e-05,0.211126532993509,0.0406769646876666,-0.069326853576506
1790,1711303190.12718,6.89982032775879,-15.85,0.668,-3.271,0.3562,0.1021,-0.0972,0.095,0.57,-9.941,-0.000157,0.000633,-0.000652,0.213726532993509,0.0326769646876666,-0.068026853576506
1791,1711303190.15193,6.92457556724548,-15.849,0.666,-3.271,0.3553,0.1021,-0.0983,0.112,0.584,-9.931,0.001358,4.1e-05,-0.000283,0.212826532993509,0.0326769646876666,-0.069126853576506
1792,1711303190.17712,6.94976282119751,-15.85,0.666,-3.27,0.3554,0.109,-0.105,0.1,0.556,-9.927,-0.000345,-0.000935,-0.000927,0.212926532993509,0.0395769646876666,-0.075826853576506
1793,1711303190.20237,6.97501230239868,-15.851,0.667,-3.27,0.3554,0.1061,-0.0973,0.098,0.572,-9.945,0.000899,2.8e-05,-0.00065,0.212926532993509,0.0366769646876666,-0.068126853576506
1794,1711303190.22723,6.99987173080444,-15.852,0.668,-3.27,0.3544,0.1021,-0.0984,0.103,0.565,-9.949,-0.000631,0.001465,-0.000551,0.211926532993509,0.0326769646876666,-0.069226853576506
1795,1711303190.25328,7.02591896057129,-15.854,0.668,-3.272,0.3535,0.1041,-0.0995,0.137,0.57,-9.946,-0.001426,9e-05,7.9e-05,0.211026532993509,0.0346769646876666,-0.070326853576506
1796,1711303190.27681,7.04945588111877,-15.852,0.669,-3.273,0.3572,0.105,-0.0971,0.124,0.58,-9.92,0.000519,-0.000633,0.000564,0.214726532993509,0.0355769646876666,-0.067926853576506
1797,1711303190.30201,7.0746545791626,-15.849,0.67,-3.276,0.3563,0.105,-0.0983,0.127,0.567,-9.957,-0.000259,0.000587,0.000492,0.213826532993509,0.0355769646876666,-0.069126853576506
1798,1711303190.32705,7.09969258308411,-15.848,0.669,-3.276,0.3535,0.1041,-0.1017,0.096,0.577,-9.93,0.00097,7.2e-05,-0.000151,0.211026532993509,0.0346769646876666,-0.072526853576506
1799,1711303190.35297,7.12561702728271,-15.847,0.67,-3.275,0.3554,0.1061,-0.1038,0.111,0.581,-9.906,-7.9e-05,0.000672,-0.000663,0.212926532993509,0.0366769646876666,-0.074626853576506
1800,1711303190.37789,7.15053176879883,-15.848,0.668,-3.276,0.3563,0.109,-0.0994,0.12,0.576,-9.944,-1.8e-05,-0.00083,-0.000132,0.213826532993509,0.0395769646876666,-0.070226853576506
1801,1711303190.4056,7.17824006080627,-15.846,0.667,-3.275,0.3544,0.1051,-0.0995,0.116,0.566,-9.961,0.000434,-0.000303,0.001371,0.211926532993509,0.0356769646876666,-0.070326853576506
1802,1711303190.4267,7.19934725761414,-15.849,0.669,-3.274,0.3563,0.1031,-0.0983,0.118,0.567,-9.917,0.00073,0.001488,2e-05,0.213826532993509,0.0336769646876666,-0.069126853576506
1803,1711303190.45249,7.22513198852539,-15.848,0.668,-3.273,0.3535,0.1051,-0.1007,0.098,0.556,-9.959,-0.000255,-0.000171,-0.000976,0.211026532993509,0.0356769646876666,-0.071526853576506
1804,1711303190.47658,7.2492196559906,-15.847,0.666,-3.272,0.3544,0.1051,-0.0995,0.109,0.556,-9.938,0.000324,-0.0009,-0.000428,0.211926532993509,0.0356769646876666,-0.070326853576506
1805,1711303190.50292,7.27556586265564,-15.847,0.666,-3.271,0.3544,0.1031,-0.0973,0.129,0.56,-9.932,0.000188,0.000771,0.001355,0.211926532993509,0.0336769646876666,-0.068126853576506
1806,1711303190.52757,7.30021452903748,-15.846,0.666,-3.271,0.3544,0.1041,-0.094,0.102,0.571,-9.92,0.000568,0.000335,-0.001147,0.211926532993509,0.0346769646876666,-0.064826853576506
1807,1711303190.55246,7.32510113716125,-15.845,0.665,-3.271,0.3554,0.1051,-0.0972,0.12,0.594,-9.944,0.001246,0.00074,-0.001067,0.212926532993509,0.0356769646876666,-0.068026853576506
1808,1711303190.5774,7.35004830360413,-15.844,0.666,-3.272,0.3544,0.1051,-0.1061,0.112,0.557,-9.935,5e-06,-0.000633,9.5e-05,0.211926532993509,0.0356769646876666,-0.076926853576506
1809,1711303190.60278,7.37542200088501,-15.843,0.667,-3.272,0.3564,0.11,-0.0972,0.114,0.556,-9.897,0.000265,-0.000223,-0.000304,0.213926532993509,0.0405769646876666,-0.068026853576506
1810,1711303190.62771,7.40035820007324,-15.845,0.667,-3.274,0.3563,0.108,-0.0961,0.125,0.579,-9.951,0.000757,-4.5e-05,0.000593,0.213826532993509,0.0385769646876666,-0.066926853576506
1811,1711303190.65272,7.42536282539368,-15.848,0.667,-3.275,0.3536,0.113,-0.0964,0.108,0.584,-9.948,-0.000293,0.000482,-0.000296,0.211126532993509,0.0435769646876666,-0.067226853576506
1812,1711303190.67764,7.45028018951416,-15.849,0.666,-3.277,0.3563,0.106,-0.1005,0.11,0.575,-9.943,-0.00052,-0.000121,-0.000225,0.213826532993509,0.0365769646876666,-0.071326853576506
1813,1711303190.70265,7.47529244422913,-15.848,0.665,-3.279,0.3564,0.112,-0.1017,0.125,0.598,-9.915,-0.000294,0.00011,-0.000197,0.213926532993509,0.0425769646876666,-0.072526853576506
1814,1711303190.72733,7.49997615814209,-15.849,0.664,-3.281,0.3563,0.1031,-0.1005,0.113,0.567,-9.916,-0.001039,0.000222,0.000478,0.213826532993509,0.0336769646876666,-0.071326853576506
1815,1711303190.75266,7.52530360221863,-15.847,0.664,-3.281,0.3572,0.1021,-0.0949,0.108,0.566,-9.976,-0.000121,-0.001569,-0.000499,0.214726532993509,0.0326769646876666,-0.065726853576506
1816,1711303190.77786,7.55049896240234,-15.848,0.663,-3.28,0.3562,0.1001,-0.0982,0.109,0.566,-9.881,0.001297,-0.000536,-0.000727,0.213726532993509,0.0306769646876666,-0.069026853576506
1817,1711303190.80266,7.57530570030212,-15.847,0.664,-3.28,0.3573,0.112,-0.1016,0.117,0.569,-9.926,0.00033,0.001025,-0.000446,0.214826532993509,0.0425769646876666,-0.072426853576506
1818,1711303190.82727,7.59991645812988,-15.848,0.663,-3.279,0.3563,0.106,-0.1038,0.141,0.575,-9.943,0.000436,-0.001402,2e-05,0.213826532993509,0.0365769646876666,-0.074626853576506
1819,1711303190.85258,7.62522482872009,-15.845,0.662,-3.279,0.3563,0.107,-0.0972,0.104,0.575,-9.943,-0.000404,-0.000725,-0.000483,0.213826532993509,0.0375769646876666,-0.068026853576506
1820,1711303190.87753,7.65016913414001,-15.843,0.662,-3.279,0.3544,0.1031,-0.1039,0.119,0.565,-9.944,0.000183,9.6e-05,-0.001131,0.211926532993509,0.0336769646876666,-0.074726853576506
1821,1711303190.90257,7.67521691322327,-15.846,0.661,-3.278,0.3553,0.1031,-0.1016,0.11,0.562,-9.905,0.001111,0.001597,-0.000859,0.212826532993509,0.0336769646876666,-0.072426853576506
1822,1711303190.92766,7.70030379295349,-15.844,0.661,-3.277,0.3572,0.105,-0.0982,0.111,0.559,-9.941,0.000128,0.000167,0.000775,0.214726532993509,0.0355769646876666,-0.069026853576506
1823,1711303190.95252,7.72516322135925,-15.845,0.663,-3.277,0.3555,0.113,-0.1006,0.11,0.564,-9.94,0.000391,7.7e-05,8.1e-05,0.213026532993509,0.0435769646876666,-0.071426853576506
1824,1711303190.97748,7.75012135505676,-15.847,0.662,-3.276,0.3544,0.1011,-0.0995,0.118,0.57,-9.932,0.000336,0.00071,-0.00032,0.211926532993509,0.0316769646876666,-0.070326853576506
1825,1711303191.00246,7.77510643005371,-15.846,0.661,-3.275,0.3563,0.1041,-0.0972,0.109,0.595,-9.919,0.00205,-0.000662,0.000197,0.213826532993509,0.0346769646876666,-0.068026853576506
1826,1711303191.0271,7.79974150657654,-15.847,0.663,-3.274,0.3563,0.1041,-0.0961,0.109,0.555,-9.923,0.000535,0.000471,-0.000945,0.213826532993509,0.0346769646876666,-0.066926853576506
1827,1711303191.05226,7.82490348815918,-15.845,0.663,-3.275,0.3591,0.104,-0.1025,0.148,0.585,-9.946,-0.000295,-4.1e-05,-0.000488,0.216626532993509,0.0345769646876666,-0.073326853576506
1828,1711303191.07724,7.84988832473755,-15.847,0.663,-3.275,0.3582,0.107,-0.0993,0.133,0.553,-9.936,0.000711,0.000225,-0.000214,0.215726532993509,0.0375769646876666,-0.070126853576506
1829,1711303191.10241,7.87505221366882,-15.847,0.664,-3.275,0.3581,0.106,-0.096,0.108,0.573,-9.931,-0.000521,0.001688,7.6e-05,0.215626532993509,0.0365769646876666,-0.066826853576506
1830,1711303191.12729,7.89993047714233,-15.849,0.662,-3.274,0.3563,0.106,-0.0983,0.111,0.569,-9.935,0.0004,0.000318,0.000361,0.213826532993509,0.0365769646876666,-0.069126853576506
1831,1711303191.15203,7.92467021942139,-15.851,0.661,-3.274,0.3573,0.111,-0.1005,0.104,0.574,-9.932,0.000856,-0.000736,0.000677,0.214826532993509,0.0415769646876666,-0.071326853576506
1832,1711303191.1773,7.94994759559631,-15.85,0.661,-3.275,0.3563,0.105,-0.0961,0.111,0.586,-9.915,0.001158,-0.000455,0.000363,0.213826532993509,0.0355769646876666,-0.066926853576506
1833,1711303191.20207,7.97470951080322,-15.848,0.661,-3.275,0.3581,0.105,-0.0971,0.104,0.559,-9.958,5.2e-05,-5.3e-05,-0.000755,0.215626532993509,0.0355769646876666,-0.067926853576506
1834,1711303191.22711,7.99975442886353,-15.847,0.661,-3.276,0.3545,0.112,-0.0952,0.102,0.571,-9.961,-0.000376,-0.000377,-0.000565,0.212026532993509,0.0425769646876666,-0.066026853576506
1835,1711303191.25207,8.02471208572388,-15.847,0.661,-3.275,0.3562,0.1011,-0.096,0.109,0.588,-9.94,-0.00079,-4.3e-05,-0.000465,0.213726532993509,0.0316769646876666,-0.066826853576506
1836,1711303191.27794,8.05058240890503,-15.848,0.661,-3.275,0.3544,0.1031,-0.0962,0.093,0.583,-9.948,0.000346,0.000564,-0.000785,0.211926532993509,0.0336769646876666,-0.067026853576506
1837,1711303191.30237,8.0750093460083,-15.845,0.66,-3.274,0.3572,0.1021,-0.096,0.125,0.561,-9.972,0.000937,-0.000433,-0.000298,0.214726532993509,0.0326769646876666,-0.066826853576506
1838,1711303191.32699,8.09963774681091,-15.844,0.66,-3.274,0.3554,0.1041,-0.1049,0.104,0.553,-9.937,0.000789,-0.000794,-0.000244,0.212926532993509,0.0346769646876666,-0.075726853576506
1839,1711303191.35281,8.12545657157898,-15.844,0.661,-3.274,0.3555,0.113,-0.1028,0.105,0.565,-9.931,0.000586,-0.000295,-0.000853,0.213026532993509,0.0435769646876666,-0.073626853576506
1840,1711303191.37695,8.14959526062012,-15.845,0.662,-3.274,0.3535,0.1021,-0.1017,0.11,0.554,-9.935,0.000725,0.001095,-0.000102,0.211026532993509,0.0326769646876666,-0.072526853576506
1841,1711303191.40267,8.17531490325928,-15.843,0.662,-3.273,0.3573,0.108,-0.0972,0.116,0.588,-9.938,0.000181,0.000486,-0.000195,0.214826532993509,0.0385769646876666,-0.068026853576506
1842,1711303191.42707,8.19971561431885,-15.844,0.664,-3.273,0.3563,0.1031,-0.0994,0.141,0.58,-9.938,-6.3e-05,0.001535,0.000238,0.213826532993509,0.0336769646876666,-0.070226853576506
1843,1711303191.4528,8.2254467010498,-15.843,0.663,-3.273,0.3572,0.107,-0.1004,0.124,0.576,-9.909,0.000549,-0.001323,0.000668,0.214726532993509,0.0375769646876666,-0.071226853576506
1844,1711303191.47707,8.24971175193787,-15.843,0.664,-3.272,0.3562,0.1021,-0.095,0.124,0.572,-9.946,0.001309,0.000387,-0.000679,0.213726532993509,0.0326769646876666,-0.065826853576506
1845,1711303191.50249,8.2751350402832,-15.841,0.664,-3.271,0.3554,0.1051,-0.0972,0.121,0.577,-9.927,0.000261,-4.9e-05,0.000958,0.212926532993509,0.0356769646876666,-0.068026853576506
1846,1711303191.52744,8.30008578300476,-15.838,0.664,-3.271,0.3562,0.1001,-0.096,0.132,0.586,-9.941,-0.000376,0.00036,-0.000502,0.213726532993509,0.0306769646876666,-0.066826853576506
1847,1711303191.5528,8.32544255256653,-15.835,0.664,-3.272,0.3545,0.1081,-0.1028,0.114,0.555,-9.934,6.4e-05,6.6e-05,-0.00076,0.212026532993509,0.0386769646876666,-0.073626853576506
1848,1711303191.57743,8.35007834434509,-15.838,0.662,-3.273,0.3553,0.1041,-0.0994,0.113,0.56,-9.93,-0.001627,-0.000868,-0.001396,0.212826532993509,0.0346769646876666,-0.070226853576506
1849,1711303191.60314,8.37578296661377,-15.837,0.663,-3.272,0.3525,0.1022,-0.1007,0.107,0.558,-9.886,-0.00057,0.001393,-0.00028,0.210026532993509,0.0327769646876666,-0.071526853576506
1850,1711303191.62767,8.400310754776,-15.834,0.662,-3.273,0.3553,0.1031,-0.1049,0.108,0.58,-9.946,-0.001325,0.00097,-0.00046,0.212826532993509,0.0336769646876666,-0.075726853576506
1851,1711303191.65248,8.42512774467468,-15.832,0.661,-3.273,0.3534,0.1012,-0.0962,0.087,0.547,-9.91,-0.000177,-0.000268,-0.000689,0.210926532993509,0.0317769646876666,-0.067026853576506
1852,1711303191.6797,8.45234322547913,-15.829,0.662,-3.272,0.3553,0.1031,-0.0972,0.132,0.594,-9.969,-0.000584,-0.00165,3.8e-05,0.212826532993509,0.0336769646876666,-0.068026853576506
1853,1711303191.70276,8.47540068626404,-15.827,0.663,-3.274,0.3535,0.1061,-0.1007,0.112,0.581,-9.935,-0.000916,-0.000408,-0.000449,0.211026532993509,0.0366769646876666,-0.071526853576506
1854,1711303191.72762,8.50026869773865,-15.824,0.662,-3.274,0.3545,0.1061,-0.0995,0.093,0.533,-9.929,-0.000385,0.000792,-0.000475,0.212026532993509,0.0366769646876666,-0.070326853576506
1855,1711303191.7527,8.52533984184265,-15.823,0.662,-3.274,0.3562,0.0971,-0.0993,0.091,0.586,-9.931,8.3e-05,0.000678,3.2e-05,0.213726532993509,0.0276769646876666,-0.070126853576506
1856,1711303191.77763,8.5502758026123,-15.821,0.664,-3.274,0.3527,0.1101,-0.0975,0.124,0.583,-9.926,0.000177,0.000289,-0.000284,0.210226532993509,0.0406769646876666,-0.068326853576506
1857,1711303191.80266,8.57530498504639,-15.816,0.665,-3.276,0.3543,0.0992,-0.1027,0.131,0.583,-9.93,-0.000591,-0.000123,-0.000618,0.211826532993509,0.0297769646876666,-0.073526853576506
1858,1711303191.82742,8.60006499290466,-15.812,0.666,-3.276,0.3544,0.1031,-0.1017,0.106,0.576,-9.907,0.000276,0.000645,-0.001371,0.211926532993509,0.0336769646876666,-0.072526853576506
1859,1711303191.8522,8.6248414516449,-15.811,0.665,-3.279,0.3545,0.1051,-0.1072,0.106,0.582,-9.913,-0.000848,-0.001275,-0.000792,0.212026532993509,0.0356769646876666,-0.078026853576506
1860,1711303191.87739,8.65003108978271,-15.806,0.663,-3.28,0.3562,0.0991,-0.1004,0.109,0.581,-9.937,0.000575,-0.000579,0.001705,0.213726532993509,0.0296769646876666,-0.071226853576506
1861,1711303191.90252,8.67516183853149,-15.801,0.661,-3.281,0.3543,0.0992,-0.1005,0.079,0.585,-9.954,-0.000711,-0.000957,-0.000306,0.211826532993509,0.0297769646876666,-0.071326853576506
1862,1711303191.9275,8.70014500617981,-15.796,0.66,-3.28,0.3534,0.1002,-0.0973,0.108,0.589,-9.926,0.000668,0.000377,1.8e-05,0.210926532993509,0.0307769646876666,-0.068126853576506
1863,1711303191.95252,8.72515916824341,-15.793,0.66,-3.279,0.3544,0.1041,-0.0995,0.1,0.592,-9.955,0.001619,-0.000447,-0.000329,0.211926532993509,0.0346769646876666,-0.070326853576506
1864,1711303191.97753,8.75017642974854,-15.788,0.659,-3.279,0.3534,0.0982,-0.1017,0.117,0.596,-9.949,0.001428,0.000391,0.000349,0.210926532993509,0.0287769646876666,-0.072526853576506
1865,1711303192.00237,8.77501106262207,-15.785,0.66,-3.279,0.3543,0.0992,-0.0972,0.127,0.577,-9.951,0.000717,0.001147,-0.000336,0.211826532993509,0.0297769646876666,-0.068026853576506
1866,1711303192.02721,8.79985809326172,-15.781,0.661,-3.278,0.3543,0.0992,-0.1005,0.115,0.603,-9.943,0.000614,0.000437,-0.000383,0.211826532993509,0.0297769646876666,-0.071326853576506
1867,1711303192.0526,8.82524037361145,-15.775,0.662,-3.277,0.3553,0.0991,-0.1005,0.134,0.554,-9.91,0.001489,-7.8e-05,0.000669,0.212826532993509,0.0296769646876666,-0.071326853576506
1868,1711303192.07908,8.85172343254089,-15.77,0.662,-3.275,0.3543,0.0992,-0.0983,0.126,0.567,-9.942,0.000439,-2.8e-05,-4e-05,0.211826532993509,0.0297769646876666,-0.069126853576506
1869,1711303192.10239,8.87503218650818,-15.763,0.663,-3.272,0.3543,0.0982,-0.1027,0.108,0.573,-9.895,0.000949,-0.000113,-0.000122,0.211826532993509,0.0287769646876666,-0.073526853576506
1870,1711303192.1278,8.90044856071472,-15.757,0.664,-3.271,0.3535,0.1012,-0.1017,0.11,0.546,-9.982,-0.000228,-0.000463,0.000158,0.211026532993509,0.0317769646876666,-0.072526853576506
1871,1711303192.15239,8.92502951622009,-15.752,0.663,-3.271,0.3525,0.0982,-0.1017,0.104,0.571,-9.925,-0.001297,7.2e-05,0.000266,0.210026532993509,0.0287769646876666,-0.072526853576506
1872,1711303192.17725,8.94989109039307,-15.749,0.661,-3.272,0.3524,0.0942,-0.0984,0.104,0.547,-9.958,-0.000726,-0.001887,0.000473,0.209926532993509,0.0247769646876666,-0.069226853576506
1873,1711303192.20207,8.97471237182617,-15.746,0.661,-3.275,0.3544,0.1001,-0.1016,0.094,0.56,-9.935,-0.002724,9.4e-05,0.001239,0.211926532993509,0.0306769646876666,-0.072426853576506
1874,1711303192.22859,9.00123643875122,-15.74,0.659,-3.278,0.3534,0.0962,-0.0995,0.093,0.57,-9.956,-0.001247,0.00059,-0.00112,0.210926532993509,0.0267769646876666,-0.070326853576506
1875,1711303192.25247,9.02511596679688,-15.734,0.658,-3.282,0.3535,0.1021,-0.1006,0.081,0.569,-9.948,-0.002252,-0.000501,-0.000542,0.211026532993509,0.0326769646876666,-0.071426853576506
1876,1711303192.27733,9.04997682571411,-15.726,0.656,-3.285,0.3524,0.0952,-0.1017,0.081,0.573,-9.903,-0.001521,0.000445,0.000223,0.209926532993509,0.0257769646876666,-0.072526853576506
1877,1711303192.30286,9.07550501823425,-15.722,0.655,-3.289,0.3534,0.0992,-0.1028,0.117,0.552,-9.896,-0.001848,0.000686,0.000417,0.210926532993509,0.0297769646876666,-0.073626853576506
1878,1711303192.32698,9.09961915016174,-15.714,0.655,-3.291,0.3543,0.0972,-0.1016,0.139,0.582,-9.918,-0.000963,-0.000819,0.001047,0.211826532993509,0.0277769646876666,-0.072426853576506
1879,1711303192.35228,9.12492227554321,-15.71,0.655,-3.293,0.3525,0.0992,-0.1061,0.154,0.555,-9.959,-0.000485,-0.001484,-7.8e-05,0.210026532993509,0.0297769646876666,-0.076926853576506
1880,1711303192.37714,9.14978003501892,-15.705,0.656,-3.293,0.3536,0.1101,-0.1029,0.175,0.555,-9.906,-0.000763,-0.00066,0.000545,0.211126532993509,0.0406769646876666,-0.073726853576506
1881,1711303192.40219,9.1748354434967,-15.704,0.656,-3.291,0.3553,0.1001,-0.0983,0.126,0.577,-9.943,0.000724,-0.001028,-0.000747,0.212826532993509,0.0306769646876666,-0.069126853576506
1882,1711303192.42704,9.19968795776367,-15.701,0.656,-3.287,0.3543,0.0992,-0.1027,0.056,0.671,-9.962,0.003554,-3.2e-05,-0.00117,0.211826532993509,0.0297769646876666,-0.073526853576506
1883,1711303192.45262,9.22526597976685,-15.697,0.655,-3.289,0.3526,0.1051,-0.1029,0.093,0.614,-9.92,-0.00172,-0.000635,-0.000896,0.210126532993509,0.0356769646876666,-0.073726853576506
1884,1711303192.47701,9.24965834617615,-15.693,0.655,-3.287,0.3515,0.0953,-0.0996,0.102,0.488,-9.945,0.002834,-0.000491,-0.000376,0.209026532993509,0.0258769646876666,-0.070426853576506
1885,1711303192.50312,9.27576279640198,-15.688,0.655,-3.286,0.3534,0.0962,-0.1038,0.11,0.576,-9.947,0.001522,0.000891,-0.000709,0.210926532993509,0.0267769646876666,-0.074626853576506
1886,1711303192.52702,9.29966068267822,-15.684,0.655,-3.285,0.3552,0.0972,-0.0983,0.104,0.579,-9.945,0.000212,0.000179,-0.000413,0.212726532993509,0.0277769646876666,-0.069126853576506
1887,1711303192.55289,9.32553744316101,-15.677,0.656,-3.285,0.3525,0.0962,-0.1072,0.144,0.585,-9.883,0.001679,0.001927,-0.000952,0.210026532993509,0.0267769646876666,-0.078026853576506
1888,1711303192.5778,9.35044860839844,-15.67,0.657,-3.283,0.3525,0.1002,-0.1029,0.11,0.575,-9.876,0.002767,0.002684,-0.000361,0.210026532993509,0.0307769646876666,-0.073726853576506
1889,1711303192.60288,9.37552523612976,-15.667,0.657,-3.283,0.3544,0.1021,-0.105,0.152,0.568,-9.956,0.001617,-0.000575,-0.000981,0.211926532993509,0.0326769646876666,-0.075826853576506
1890,1711303192.62787,9.40050935745239,-15.662,0.657,-3.282,0.3515,0.0963,-0.1073,0.158,0.541,-9.936,0.001102,-7e-05,-0.001492,0.209026532993509,0.0268769646876666,-0.078126853576506
1891,1711303192.65283,9.42547559738159,-15.66,0.658,-3.282,0.3515,0.0982,-0.0974,0.126,0.577,-9.934,0.000239,-3.7e-05,-0.000235,0.209026532993509,0.0287769646876666,-0.068226853576506
1892,1711303192.67774,9.45038223266602,-15.656,0.657,-3.281,0.3534,0.0972,-0.1017,0.11,0.584,-9.912,0.000322,-0.000415,0.000484,0.210926532993509,0.0277769646876666,-0.072526853576506
1893,1711303192.70285,9.47549271583557,-15.65,0.657,-3.28,0.3534,0.0992,-0.1006,0.119,0.568,-9.936,-0.000686,-0.000551,-0.000146,0.210926532993509,0.0297769646876666,-0.071426853576506
1894,1711303192.72773,9.50036931037903,-15.643,0.656,-3.28,0.3544,0.1001,-0.0994,0.108,0.564,-9.953,0.000625,-0.000278,-0.000395,0.211926532993509,0.0306769646876666,-0.070226853576506
1895,1711303192.75245,9.52509379386902,-15.641,0.656,-3.279,0.3543,0.0962,-0.0994,0.084,0.553,-9.917,-0.000487,-0.000528,0.001574,0.211826532993509,0.0267769646876666,-0.070226853576506
1896,1711303192.77772,9.55036664009094,-15.631,0.655,-3.278,0.3524,0.0952,-0.0995,0.09,0.581,-9.968,0.000329,-4.7e-05,0.001686,0.209926532993509,0.0257769646876666,-0.070326853576506
1897,1711303192.80273,9.5753767490387,-15.622,0.656,-3.278,0.3525,0.0962,-0.1017,0.102,0.561,-9.965,-0.000675,0.000315,0.001529,0.210026532993509,0.0267769646876666,-0.072526853576506
1898,1711303192.82763,9.60026884078979,-15.616,0.656,-3.278,0.3534,0.0992,-0.1072,0.107,0.568,-9.914,-0.000161,0.000486,-0.000251,0.210926532993509,0.0297769646876666,-0.078026853576506
1899,1711303192.85269,9.62533354759216,-15.609,0.656,-3.278,0.3534,0.0982,-0.1028,0.127,0.577,-9.955,-0.000343,0.000787,-0.000369,0.210926532993509,0.0287769646876666,-0.073626853576506
1900,1711303192.87731,9.64995265007019,-15.604,0.657,-3.28,0.3515,0.0963,-0.104,0.125,0.58,-9.894,-0.001009,0.001457,0.000227,0.209026532993509,0.0268769646876666,-0.074826853576506
1901,1711303192.90233,9.67497324943542,-15.597,0.657,-3.28,0.3544,0.1041,-0.1006,0.124,0.591,-9.913,-0.000526,0.000641,-0.000402,0.211926532993509,0.0346769646876666,-0.071426853576506
1902,1711303192.9276,9.70024609565735,-15.589,0.658,-3.281,0.3534,0.0972,-0.0984,0.14,0.585,-9.942,-0.000388,-6.4e-05,0.000142,0.210926532993509,0.0277769646876666,-0.069226853576506
1903,1711303192.95255,9.72519564628601,-15.582,0.659,-3.281,0.3515,0.0972,-0.1029,0.124,0.589,-9.901,-0.001095,0.000156,0.001081,0.209026532993509,0.0277769646876666,-0.073726853576506
1904,1711303192.97731,9.74995493888855,-15.574,0.66,-3.281,0.3525,0.0982,-0.1006,0.112,0.584,-9.907,-4.8e-05,0.001012,-0.001107,0.210026532993509,0.0287769646876666,-0.071426853576506
1905,1711303193.00256,9.77520680427551,-15.566,0.662,-3.283,0.3543,0.0982,-0.1005,0.213,0.383,-10.174,0.004455,0.010081,-0.000552,0.211826532993509,0.0287769646876666,-0.071326853576506
1906,1711303193.02752,9.80016183853149,-15.56,0.661,-3.28,0.3525,0.1022,-0.1018,0.093,0.758,-9.572,0.000723,-0.005357,0.001318,0.210026532993509,0.0327769646876666,-0.072626853576506
1907,1711303193.05248,9.82512140274048,-15.556,0.662,-3.28,0.3552,0.0962,-0.0993,0.119,0.473,-10.121,-0.000441,0.000808,-0.001284,0.212726532993509,0.0267769646876666,-0.070126853576506
1908,1711303193.07723,9.84987664222717,-15.549,0.663,-3.279,0.3545,0.1061,-0.1039,0.086,0.604,-9.837,-0.000434,0.00066,-0.000743,0.212026532993509,0.0366769646876666,-0.074726853576506
1909,1711303193.10223,9.87487697601318,-15.541,0.662,-3.282,0.3561,0.0961,-0.1004,0.111,0.522,-9.949,-0.002134,-0.001662,-8.2e-05,0.213626532993509,0.0266769646876666,-0.071226853576506
1910,1711303193.12721,9.89985632896423,-15.536,0.662,-3.284,0.3552,0.0952,-0.107,0.126,0.562,-9.954,-0.002325,-3.5e-05,-0.001067,0.212726532993509,0.0257769646876666,-0.077826853576506
1911,1711303193.15243,9.92506957054138,-15.528,0.66,-3.286,0.3543,0.0982,-0.0994,0.12,0.578,-9.902,5.7e-05,-0.001895,-0.00042,0.211826532993509,0.0287769646876666,-0.070226853576506
1912,1711303193.17811,9.95074987411499,-15.526,0.659,-3.286,0.3543,0.0992,-0.1005,0.107,0.574,-9.922,-8.9e-05,-6.6e-05,0.000195,0.211826532993509,0.0297769646876666,-0.071326853576506
1913,1711303193.20213,9.97477507591248,-15.52,0.659,-3.284,0.3544,0.1001,-0.1016,0.117,0.608,-9.887,0.003156,-0.000624,-0.000815,0.211926532993509,0.0306769646876666,-0.072426853576506
1914,1711303193.22761,10.0002553462982,-15.516,0.66,-3.282,0.3543,0.0972,-0.1016,0.14,0.604,-9.892,-0.001074,0.000858,-0.000276,0.211826532993509,0.0277769646876666,-0.072426853576506
1915,1711303193.25542,10.0280590057373,-15.513,0.66,-3.279,0.3543,0.0952,-0.0983,0.127,0.534,-9.929,-0.002117,-0.000939,0.001101,0.211826532993509,0.0257769646876666,-0.069126853576506
1916,1711303193.27725,10.0498917102814,-15.505,0.66,-3.277,0.3562,0.0971,-0.0993,0.117,0.547,-9.937,-0.001617,-0.001672,0.001514,0.213726532993509,0.0276769646876666,-0.070126853576506
1917,1711303193.30209,10.0747380256653,-15.496,0.661,-3.277,0.3535,0.1061,-0.1018,0.123,0.557,-9.957,0.000831,0.000192,0.000904,0.211026532993509,0.0366769646876666,-0.072626853576506
1918,1711303193.32707,10.0997130870819,-15.494,0.66,-3.277,0.3524,0.0943,-0.1061,0.094,0.561,-9.958,0.001365,0.000318,0.000601,0.209926532993509,0.0248769646876666,-0.076926853576506
1919,1711303193.35205,10.1246914863586,-15.49,0.659,-3.278,0.3534,0.0972,-0.0995,0.095,0.566,-9.952,0.000556,-0.000636,0.000705,0.210926532993509,0.0277769646876666,-0.070326853576506
1920,1711303193.37722,10.1498606204987,-15.486,0.658,-3.279,0.3526,0.1071,-0.1051,0.112,0.576,-9.96,0.000624,-0.000496,-0.00046,0.210126532993509,0.0376769646876666,-0.075926853576506
1921,1711303193.40218,10.1748225688934,-15.483,0.658,-3.279,0.3552,0.0962,-0.0993,0.084,0.563,-9.927,-0.001287,-0.000435,0.000502,0.212726532993509,0.0267769646876666,-0.070126853576506
1922,1711303193.42735,10.1999936103821,-15.476,0.658,-3.278,0.3552,0.0972,-0.0972,0.081,0.566,-9.902,-9.8e-05,0.00071,-0.000488,0.212726532993509,0.0277769646876666,-0.068026853576506
1923,1711303193.4521,10.2247388362885,-15.469,0.659,-3.278,0.3545,0.1091,-0.1017,0.104,0.596,-9.896,-4.7e-05,7.3e-05,0.000271,0.212026532993509,0.0396769646876666,-0.072526853576506
1924,1711303193.477,10.2496461868286,-15.469,0.66,-3.278,0.3534,0.0982,-0.1017,0.13,0.569,-9.898,7.4e-05,5.9e-05,-0.000635,0.210926532993509,0.0287769646876666,-0.072526853576506
1925,1711303193.50236,10.2750058174133,-15.464,0.66,-3.278,0.3515,0.0943,-0.1017,0.127,0.586,-9.916,0.000239,0.000674,0.000124,0.209026532993509,0.0248769646876666,-0.072526853576506
1926,1711303193.52734,10.2999804019928,-15.458,0.661,-3.278,0.3534,0.0962,-0.0995,0.124,0.587,-9.885,9.4e-05,-0.000665,0.000895,0.210926532993509,0.0267769646876666,-0.070326853576506
1927,1711303193.55289,10.3255319595337,-15.45,0.661,-3.277,0.3535,0.1022,-0.1061,0.129,0.577,-9.952,0.000697,0.000932,0.000684,0.211026532993509,0.0327769646876666,-0.076926853576506
1928,1711303193.57686,10.3495073318481,-15.445,0.662,-3.276,0.3533,0.0932,-0.0994,0.125,0.592,-9.94,0.000396,-0.000149,-0.000418,0.210826532993509,0.0237769646876666,-0.070226853576506
1929,1711303193.60264,10.3752882480621,-15.437,0.662,-3.275,0.3525,0.0972,-0.1006,0.12,0.564,-9.923,0.000289,0.000589,-0.000478,0.210026532993509,0.0277769646876666,-0.071426853576506
1930,1711303193.62717,10.39981341362,-15.434,0.661,-3.275,0.3545,0.1071,-0.105,0.1,0.558,-9.962,0.000269,0.000304,-0.000191,0.212026532993509,0.0376769646876666,-0.075826853576506
1931,1711303193.65282,10.4254596233368,-15.429,0.661,-3.276,0.3525,0.0992,-0.0985,0.101,0.555,-9.921,0.000238,-0.000473,0.00011,0.210026532993509,0.0297769646876666,-0.069326853576506
1932,1711303193.67781,10.4504561424255,-15.425,0.659,-3.276,0.3534,0.0992,-0.1017,0.089,0.555,-9.939,0.000371,-0.00113,0.000142,0.210926532993509,0.0297769646876666,-0.072526853576506
1933,1711303193.70297,10.4756181240082,-15.419,0.658,-3.275,0.3553,0.1001,-0.1016,0.087,0.543,-9.927,5.1e-05,-0.001107,0.000651,0.212826532993509,0.0306769646876666,-0.072426853576506
1934,1711303193.72828,10.5009205341339,-15.415,0.657,-3.275,0.3515,0.0963,-0.1007,0.118,0.584,-9.913,0.00014,-5.5e-05,-0.000595,0.209026532993509,0.0268769646876666,-0.071526853576506
1935,1711303193.75294,10.5255794525146,-15.409,0.657,-3.275,0.3553,0.0981,-0.1005,0.082,0.588,-9.895,7.2e-05,0.000818,-0.001103,0.212826532993509,0.0286769646876666,-0.071326853576506
1936,1711303193.77779,10.5504293441772,-15.401,0.657,-3.275,0.3534,0.0952,-0.1071,0.104,0.568,-9.912,0.000211,-6.6e-05,0.000101,0.210926532993509,0.0257769646876666,-0.077926853576506
1937,1711303193.80261,10.5752537250519,-15.394,0.659,-3.276,0.3524,0.0952,-0.1028,0.122,0.573,-9.915,-0.000256,-0.000113,0.000434,0.209926532993509,0.0257769646876666,-0.073626853576506
1938,1711303193.82792,10.6005606651306,-15.388,0.66,-3.276,0.3534,0.0982,-0.0995,0.138,0.59,-9.943,-0.001017,0.001533,0.000682,0.210926532993509,0.0287769646876666,-0.070326853576506
1939,1711303193.8527,10.6253399848938,-15.383,0.66,-3.277,0.3533,0.0942,-0.0983,0.134,0.594,-9.92,-0.000564,0.00065,0.000376,0.210826532993509,0.0247769646876666,-0.069126853576506
1940,1711303193.87753,10.6501729488373,-15.375,0.661,-3.276,0.3543,0.0982,-0.1038,0.121,0.579,-9.935,-6.9e-05,0.001831,0.000222,0.211826532993509,0.0287769646876666,-0.074626853576506
1941,1711303193.9023,10.674947977066,-15.373,0.663,-3.277,0.3534,0.0962,-0.1006,0.118,0.596,-9.916,0.000707,2.1e-05,0.00021,0.210926532993509,0.0267769646876666,-0.071426853576506
1942,1711303193.92737,10.7000162601471,-15.367,0.663,-3.276,0.3534,0.0982,-0.1006,0.089,0.57,-9.922,0.00054,0.000214,0.001384,0.210926532993509,0.0287769646876666,-0.071426853576506
1943,1711303193.95235,10.7249941825867,-15.364,0.661,-3.277,0.3543,0.0982,-0.1016,0.105,0.575,-9.913,0.000477,-0.000581,3e-05,0.211826532993509,0.0287769646876666,-0.072426853576506
1944,1711303193.97762,10.7502679824829,-15.359,0.66,-3.277,0.3534,0.0962,-0.106,0.095,0.577,-9.941,0.000677,7.6e-05,-0.000228,0.210926532993509,0.0267769646876666,-0.076826853576506
1945,1711303194.00274,10.7753856182098,-15.353,0.66,-3.276,0.3552,0.0962,-0.1037,0.115,0.569,-9.93,-1.7e-05,0.000153,0.000292,0.212726532993509,0.0267769646876666,-0.074526853576506
1946,1711303194.02722,10.7998602390289,-15.347,0.66,-3.276,0.3543,0.0942,-0.106,0.089,0.561,-9.947,0.000541,0.000886,-0.00083,0.211826532993509,0.0247769646876666,-0.076826853576506
1947,1711303194.05226,10.8248999118805,-15.343,0.66,-3.275,0.3543,0.0962,-0.1016,0.113,0.579,-9.934,-0.000214,0.000288,-0.000651,0.211826532993509,0.0267769646876666,-0.072426853576506
1948,1711303194.0775,10.8501408100128,-15.34,0.66,-3.276,0.3535,0.1061,-0.1051,0.12,0.565,-9.944,-0.00042,0.000265,-0.000682,0.211026532993509,0.0366769646876666,-0.075926853576506
1949,1711303194.10263,10.8752772808075,-15.335,0.661,-3.276,0.3515,0.0943,-0.1039,0.126,0.554,-9.936,-0.000749,0.000993,-0.001326,0.209026532993509,0.0248769646876666,-0.074726853576506
1950,1711303194.12741,10.9000537395477,-15.328,0.66,-3.277,0.3525,0.0972,-0.1083,0.094,0.571,-9.945,0.00073,0.000424,-0.000443,0.210026532993509,0.0277769646876666,-0.079126853576506
1951,1711303194.15251,10.925149679184,-15.323,0.661,-3.277,0.3515,0.0943,-0.1028,0.092,0.558,-9.896,-0.000445,7.1e-05,0.000359,0.209026532993509,0.0248769646876666,-0.073626853576506
1952,1711303194.17746,10.9501006603241,-15.313,0.661,-3.276,0.3533,0.0932,-0.1038,0.117,0.574,-9.934,0.000819,-0.001363,0.001183,0.210826532993509,0.0237769646876666,-0.074626853576506
1953,1711303194.20219,10.9748301506042,-15.31,0.661,-3.276,0.3543,0.0942,-0.1049,0.112,0.581,-9.914,0.000197,0.000622,0.000284,0.211826532993509,0.0247769646876666,-0.075726853576506
1954,1711303194.22719,10.9998373985291,-15.308,0.66,-3.277,0.3552,0.0962,-0.1004,0.119,0.579,-9.929,0.000443,0.001211,0.001115,0.212726532993509,0.0267769646876666,-0.071226853576506
1955,1711303194.25348,11.0261199474335,-15.301,0.66,-3.279,0.3525,0.0952,-0.1094,0.092,0.583,-9.909,-0.001033,0.000104,-0.000808,0.210026532993509,0.0257769646876666,-0.080226853576506
1956,1711303194.27743,11.0500688552856,-15.295,0.659,-3.279,0.3533,0.0913,-0.1027,0.107,0.558,-9.967,-0.000568,-0.000304,0.000241,0.210826532993509,0.0218769646876666,-0.073526853576506
1957,1711303194.30211,11.0747559070587,-15.291,0.657,-3.279,0.3534,0.0952,-0.0973,0.105,0.567,-9.961,0.000819,-0.000554,-0.000883,0.210926532993509,0.0257769646876666,-0.068126853576506
1958,1711303194.3272,11.099839925766,-15.289,0.656,-3.279,0.3544,0.1021,-0.106,0.102,0.581,-9.918,0.000396,5.7e-05,-0.000154,0.211926532993509,0.0326769646876666,-0.076826853576506
1959,1711303194.3525,11.1251473426819,-15.282,0.655,-3.279,0.3534,0.0972,-0.0995,0.124,0.535,-9.938,0.001243,0.000469,-0.000549,0.210926532993509,0.0277769646876666,-0.070326853576506
1960,1711303194.37725,11.1498966217041,-15.278,0.655,-3.278,0.3525,0.0992,-0.1039,0.105,0.552,-9.911,0.001189,0.000308,0.000822,0.210026532993509,0.0297769646876666,-0.074726853576506
1961,1711303194.40201,11.1746532917023,-15.274,0.656,-3.277,0.3553,0.1001,-0.0972,0.12,0.568,-9.952,0.000546,-0.000611,-0.000494,0.212826532993509,0.0306769646876666,-0.068026853576506
1962,1711303194.42697,11.199615240097,-15.269,0.656,-3.277,0.3543,0.0952,-0.1049,0.132,0.554,-9.925,-8.7e-05,0.000194,-0.000164,0.211826532993509,0.0257769646876666,-0.075726853576506
1963,1711303194.45212,11.2247612476349,-15.262,0.657,-3.276,0.3553,0.0981,-0.1059,0.116,0.556,-9.97,0.00013,-0.000119,0.000557,0.212826532993509,0.0286769646876666,-0.076726853576506
1964,1711303194.47843,11.2510712146759,-15.258,0.657,-3.275,0.3543,0.0932,-0.1027,0.133,0.56,-9.943,0.000245,0.001535,-0.000588,0.211826532993509,0.0237769646876666,-0.073526853576506
1965,1711303194.50195,11.2745907306671,-15.251,0.658,-3.275,0.3534,0.0982,-0.105,0.12,0.56,-9.932,-0.000295,0.000199,0.001092,0.210926532993509,0.0287769646876666,-0.075826853576506
1966,1711303194.52718,11.299822807312,-15.245,0.658,-3.276,0.3525,0.0962,-0.1017,0.101,0.566,-9.932,-0.000377,0.000135,0.000666,0.210026532993509,0.0267769646876666,-0.072526853576506
1967,1711303194.55223,11.3248751163483,-15.237,0.657,-3.278,0.3535,0.1022,-0.1094,0.112,0.578,-9.947,-9.9e-05,-4.3e-05,0.000719,0.211026532993509,0.0327769646876666,-0.080226853576506
1968,1711303194.57707,11.3497166633606,-15.23,0.657,-3.279,0.3525,0.1022,-0.104,0.125,0.584,-9.904,-0.000296,0.000788,-0.00147,0.210026532993509,0.0327769646876666,-0.074826853576506
1969,1711303194.60295,11.3755939006805,-15.223,0.658,-3.281,0.3562,0.0971,-0.1004,0.112,0.587,-9.921,-0.000388,-0.000221,-0.000757,0.213726532993509,0.0276769646876666,-0.071226853576506
1970,1711303194.62784,11.400486946106,-15.219,0.657,-3.282,0.3525,0.0982,-0.1006,0.124,0.58,-9.935,0.000745,-0.000681,4.2e-05,0.210026532993509,0.0287769646876666,-0.071426853576506
1971,1711303194.65285,11.4254949092865,-15.214,0.657,-3.283,0.3552,0.0972,-0.1015,0.118,0.546,-9.932,0.000585,0.000148,0.000679,0.212726532993509,0.0277769646876666,-0.072326853576506
1972,1711303194.6767,11.4493424892426,-15.213,0.656,-3.281,0.3553,0.0991,-0.1005,0.112,0.574,-9.944,-0.000554,-0.000761,-0.00026,0.212826532993509,0.0296769646876666,-0.071326853576506
1973,1711303194.70288,11.4755220413208,-15.208,0.655,-3.281,0.3543,0.0982,-0.1049,0.099,0.57,-9.915,-4.8e-05,-0.000348,0.001069,0.211826532993509,0.0287769646876666,-0.075726853576506
1974,1711303194.7275,11.5001440048218,-15.203,0.656,-3.28,0.3543,0.0952,-0.1027,0.108,0.565,-9.902,0.000178,0.00011,7e-06,0.211826532993509,0.0257769646876666,-0.073526853576506
1975,1711303194.75288,11.5255219936371,-15.198,0.655,-3.281,0.3543,0.0932,-0.1016,0.101,0.558,-9.923,0.000259,-0.000508,0.000271,0.211826532993509,0.0237769646876666,-0.072426853576506
1976,1711303194.77775,11.5503900051117,-15.191,0.655,-3.28,0.3543,0.0972,-0.106,0.088,0.587,-9.903,0.000684,-0.000745,-0.000673,0.211826532993509,0.0277769646876666,-0.076826853576506
1977,1711303194.80298,11.5756270885468,-15.186,0.655,-3.28,0.3535,0.1061,-0.1018,0.108,0.602,-9.913,-0.000529,-0.00028,0.000255,0.211026532993509,0.0366769646876666,-0.072626853576506
1978,1711303194.82775,11.6003906726837,-15.184,0.655,-3.28,0.3561,0.0932,-0.1025,0.098,0.575,-9.919,0.000133,-0.000852,-0.000711,0.213626532993509,0.0237769646876666,-0.073326853576506
1979,1711303194.85275,11.6253926753998,-15.18,0.656,-3.28,0.3552,0.0972,-0.1004,0.126,0.57,-9.932,0.000681,0.001339,0.000149,0.212726532993509,0.0277769646876666,-0.071226853576506
1980,1711303194.87767,11.6503131389618,-15.177,0.657,-3.281,0.3534,0.0982,-0.1039,0.103,0.588,-9.938,0.001048,0.000231,-0.00019,0.210926532993509,0.0287769646876666,-0.074726853576506
1981,1711303194.90295,11.6755986213684,-15.175,0.659,-3.282,0.3544,0.1031,-0.1039,0.123,0.598,-9.933,-0.000788,-0.000357,-0.000413,0.211926532993509,0.0336769646876666,-0.074726853576506
1982,1711303194.92732,11.6999628543854,-15.171,0.66,-3.283,0.3553,0.0981,-0.1005,0.125,0.558,-9.909,-0.000787,-0.001364,0.000205,0.212826532993509,0.0286769646876666,-0.071326853576506
1983,1711303194.95267,11.7253127098083,-15.165,0.66,-3.283,0.3561,0.0952,-0.1048,0.093,0.568,-9.932,-0.000176,-0.000406,0.000911,0.213626532993509,0.0257769646876666,-0.075626853576506
1984,1711303194.97758,11.7502210140228,-15.16,0.658,-3.283,0.3543,0.0962,-0.1027,0.133,0.57,-9.938,-0.001429,0.000512,8e-06,0.211826532993509,0.0267769646876666,-0.073526853576506
1985,1711303195.00259,11.7752332687378,-15.155,0.658,-3.284,0.3562,0.0971,-0.1048,0.095,0.568,-9.933,-0.000949,-0.001713,-7.9e-05,0.213726532993509,0.0276769646876666,-0.075626853576506
1986,1711303195.02758,11.8002214431763,-15.153,0.657,-3.284,0.3543,0.0962,-0.1005,0.12,0.554,-9.917,0.001256,-0.000851,0.00162,0.211826532993509,0.0267769646876666,-0.071326853576506
1987,1711303195.05263,11.8252754211426,-15.148,0.656,-3.283,0.3507,0.1012,-0.1019,0.134,0.539,-9.929,0.00058,0.000242,0.000141,0.208226532993509,0.0317769646876666,-0.072726853576506
1988,1711303195.07758,11.8502192497253,-15.142,0.657,-3.284,0.3544,0.1021,-0.1071,0.106,0.596,-9.922,-0.000201,0.000111,-0.000371,0.211926532993509,0.0326769646876666,-0.077926853576506
1989,1711303195.10277,11.8754186630249,-15.139,0.658,-3.285,0.3562,0.1001,-0.1004,0.119,0.565,-9.9,0.000273,-2.8e-05,-0.000636,0.213726532993509,0.0306769646876666,-0.071226853576506
1990,1711303195.12739,11.9000289440155,-15.134,0.659,-3.285,0.3543,0.0962,-0.1016,0.114,0.574,-9.936,-6.2e-05,0.001529,0.000263,0.211826532993509,0.0267769646876666,-0.072426853576506
1991,1711303195.15255,11.9251928329468,-15.13,0.66,-3.285,0.3544,0.1011,-0.1006,0.123,0.544,-9.94,-0.000193,0.000402,0.000797,0.211926532993509,0.0316769646876666,-0.071426853576506
1992,1711303195.17731,11.9499571323395,-15.124,0.661,-3.285,0.3534,0.0992,-0.1039,0.1,0.553,-9.931,-0.000833,-0.000495,0.00091,0.210926532993509,0.0297769646876666,-0.074726853576506
1993,1711303195.20222,11.9748666286469,-15.119,0.66,-3.283,0.3552,0.0952,-0.1026,0.11,0.564,-9.989,7.6e-05,-0.00101,0.001064,0.212726532993509,0.0257769646876666,-0.073426853576506
1994,1711303195.22746,12.0001065731049,-15.113,0.66,-3.282,0.3543,0.0942,-0.1005,0.147,0.558,-9.947,-0.000562,-8e-05,0.00044,0.211826532993509,0.0247769646876666,-0.071326853576506
1995,1711303195.25308,12.0257213115692,-15.108,0.658,-3.284,0.3515,0.0972,-0.1029,0.089,0.602,-9.885,0.000212,-0.00017,-0.000309,0.209026532993509,0.0277769646876666,-0.073726853576506
1996,1711303195.27726,12.049901008606,-15.104,0.657,-3.284,0.3524,0.0933,-0.1061,0.1,0.556,-9.937,0.002529,0.000796,-0.00089,0.209926532993509,0.0238769646876666,-0.076926853576506
1997,1711303195.30214,12.0747857093811,-15.1,0.656,-3.285,0.3543,0.0952,-0.1005,0.083,0.572,-9.946,0.000537,-0.000315,0.000967,0.211826532993509,0.0257769646876666,-0.071326853576506
1998,1711303195.32726,12.0999040603638,-15.094,0.653,-3.285,0.3534,0.0952,-0.1027,0.062,0.556,-9.939,0.000634,3.7e-05,-0.000703,0.210926532993509,0.0257769646876666,-0.073526853576506
1999,1711303195.35261,12.1252582073212,-15.086,0.652,-3.285,0.3543,0.0982,-0.1016,0.12,0.576,-9.937,-0.000158,-0.000458,0.000241,0.211826532993509,0.0287769646876666,-0.072426853576506
2000,1711303195.37743,12.1500778198242,-15.084,0.652,-3.284,0.3524,0.0943,-0.1039,0.11,0.568,-9.925,-2.6e-05,0.000242,-0.000261,0.209926532993509,0.0248769646876666,-0.074726853576506
2001,1711303195.402,12.1746451854706,-15.081,0.653,-3.281,0.3524,0.0923,-0.1006,0.15,0.558,-9.931,0.000874,-0.001293,-0.000661,0.209926532993509,0.0228769646876666,-0.071426853576506
2002,1711303195.42689,12.1995313167572,-15.076,0.656,-3.279,0.3525,0.0972,-0.1116,0.152,0.543,-9.921,0.000703,-0.000739,0.000837,0.210026532993509,0.0277769646876666,-0.082426853576506
2003,1711303195.45203,12.2246782779694,-15.072,0.657,-3.278,0.3525,0.0982,-0.1105,0.153,0.558,-9.919,0.000545,0.001699,0.000976,0.210026532993509,0.0287769646876666,-0.081326853576506
2004,1711303195.4772,12.2498388290405,-15.071,0.659,-3.277,0.3506,0.0953,-0.104,0.137,0.563,-9.945,-0.000251,-0.000823,0.0005,0.208126532993509,0.0258769646876666,-0.074826853576506
2005,1711303195.50232,12.2749617099762,-15.067,0.659,-3.277,0.3524,0.0903,-0.1038,0.119,0.564,-9.908,-0.001477,0.000269,-0.001077,0.209926532993509,0.0208769646876666,-0.074626853576506
2006,1711303195.52711,12.2997577190399,-15.061,0.657,-3.277,0.3524,0.0933,-0.1028,0.106,0.571,-9.908,-0.001547,0.001015,0.000372,0.209926532993509,0.0238769646876666,-0.073626853576506
2007,1711303195.55205,12.3246946334839,-15.057,0.655,-3.278,0.3534,0.0952,-0.1027,0.09,0.566,-9.98,-0.001736,-0.00133,0.000427,0.210926532993509,0.0257769646876666,-0.073526853576506
2008,1711303195.57704,12.3496856689453,-15.051,0.651,-3.28,0.3517,0.1042,-0.1062,0.081,0.605,-9.909,7.1e-05,-0.000136,0.000201,0.209226532993509,0.0347769646876666,-0.077026853576506
2009,1711303195.60301,12.3756515979767,-15.045,0.65,-3.282,0.3534,0.0962,-0.1038,0.079,0.618,-9.914,0.00014,4.7e-05,0.000941,0.210926532993509,0.0267769646876666,-0.074626853576506
2010,1711303195.62715,12.3997943401337,-15.041,0.649,-3.283,0.3507,0.1032,-0.1063,0.097,0.586,-9.931,-0.000297,0.00113,5e-05,0.208226532993509,0.0337769646876666,-0.077126853576506
2011,1711303195.65263,12.4252707958221,-15.037,0.649,-3.284,0.3524,0.0952,-0.0995,0.119,0.553,-9.976,-0.000725,-0.000495,-0.000614,0.209926532993509,0.0257769646876666,-0.070326853576506
2012,1711303195.67683,12.4494757652283,-15.032,0.65,-3.284,0.3525,0.0982,-0.1028,0.131,0.564,-9.925,0.000323,0.000185,0.000329,0.210026532993509,0.0287769646876666,-0.073626853576506
2013,1711303195.70283,12.4754707813263,-15.029,0.652,-3.282,0.3524,0.0952,-0.1039,0.129,0.526,-9.974,0.000861,0.000385,0.000416,0.209926532993509,0.0257769646876666,-0.074726853576506
2014,1711303195.72706,12.4997017383575,-15.024,0.653,-3.281,0.3525,0.0962,-0.105,0.133,0.556,-9.962,0.001429,-0.000614,-0.000764,0.210026532993509,0.0267769646876666,-0.075826853576506
2015,1711303195.75278,12.5254266262054,-15.018,0.653,-3.28,0.3534,0.0982,-0.1028,0.119,0.554,-9.949,0.001152,-7.1e-05,0.000118,0.210926532993509,0.0287769646876666,-0.073626853576506
2016,1711303195.77753,12.5501713752747,-15.014,0.654,-3.28,0.3534,0.0962,-0.1027,0.119,0.572,-9.94,0.000379,-0.000114,-0.000613,0.210926532993509,0.0267769646876666,-0.073526853576506
2017,1711303195.80265,12.5752949714661,-15.009,0.654,-3.279,0.3525,0.0982,-0.1039,0.102,0.571,-9.936,-2.1e-05,-0.000468,0.0013,0.210026532993509,0.0287769646876666,-0.074726853576506
2018,1711303195.82768,12.6003222465515,-15.001,0.654,-3.277,0.3553,0.0981,-0.1048,0.121,0.521,-9.937,0.000943,-0.0001,0.001063,0.212826532993509,0.0286769646876666,-0.075626853576506
2019,1711303195.85249,12.6251382827759,-15.001,0.652,-3.274,0.3506,0.0963,-0.104,0.095,0.578,-9.922,0.00059,-5.1e-05,-0.000489,0.208126532993509,0.0268769646876666,-0.074826853576506
2020,1711303195.87771,12.650349855423,-14.998,0.651,-3.273,0.3526,0.1032,-0.1062,0.089,0.567,-9.929,-0.000212,-0.0005,0.00027,0.210126532993509,0.0337769646876666,-0.077026853576506
2021,1711303195.90296,12.6756019592285,-14.994,0.649,-3.273,0.3524,0.0933,-0.1039,0.098,0.572,-9.945,-0.001272,5.1e-05,-6.7e-05,0.209926532993509,0.0238769646876666,-0.074726853576506
2022,1711303195.92734,12.6999864578247,-14.996,0.648,-3.274,0.3524,0.0952,-0.1039,0.11,0.568,-9.893,-0.000438,0.000857,0.000106,0.209926532993509,0.0257769646876666,-0.074726853576506
2023,1711303195.95271,12.725350856781,-14.995,0.647,-3.276,0.3543,0.0952,-0.1071,0.104,0.596,-9.915,-0.000629,0.000588,-0.000244,0.211826532993509,0.0257769646876666,-0.077926853576506
2024,1711303195.97764,12.750283241272,-14.993,0.648,-3.279,0.3524,0.0952,-0.105,0.143,0.615,-9.923,0.000377,-0.000406,0.000288,0.209926532993509,0.0257769646876666,-0.075826853576506
2025,1711303196.00241,12.7750489711761,-14.989,0.649,-3.282,0.3543,0.0952,-0.1049,0.119,0.591,-9.951,-0.000112,0.000458,-0.001067,0.211826532993509,0.0257769646876666,-0.075726853576506
2026,1711303196.02767,12.8003170490265,-14.986,0.649,-3.283,0.3552,0.0942,-0.1059,0.134,0.584,-9.987,0.000396,-0.000427,-0.00089,0.212726532993509,0.0247769646876666,-0.076726853576506
2027,1711303196.05281,12.8254518508911,-14.982,0.649,-3.284,0.3534,0.0952,-0.1027,0.109,0.594,-9.974,-0.000386,-0.000622,0.000505,0.210926532993509,0.0257769646876666,-0.073526853576506
2028,1711303196.07757,12.8502187728882,-14.98,0.649,-3.282,0.3515,0.0953,-0.1051,0.133,0.6,-9.912,0.001679,-0.001187,0.001412,0.209026532993509,0.0258769646876666,-0.075926853576506
2029,1711303196.10327,12.8759124279022,-14.975,0.65,-3.282,0.3534,0.0972,-0.105,0.141,0.567,-9.941,0.000522,-0.000167,-0.000229,0.210926532993509,0.0277769646876666,-0.075826853576506
2030,1711303196.12762,12.9002642631531,-14.971,0.65,-3.281,0.3525,0.0962,-0.1039,0.113,0.564,-9.93,0.000987,3.3e-05,0.000597,0.210026532993509,0.0267769646876666,-0.074726853576506
2031,1711303196.15258,12.9252276420593,-14.968,0.649,-3.279,0.3534,0.0952,-0.1016,0.108,0.571,-9.897,0.000628,0.000144,-4.2e-05,0.210926532993509,0.0257769646876666,-0.072426853576506
2032,1711303196.1775,12.9501466751099,-14.964,0.647,-3.278,0.3516,0.1002,-0.104,0.084,0.547,-9.941,-0.000241,-0.000385,-0.00021,0.209126532993509,0.0307769646876666,-0.074826853576506
2033,1711303196.2024,12.9750411510468,-14.962,0.646,-3.277,0.3544,0.1041,-0.1116,0.099,0.559,-9.919,-0.000179,0.000337,-0.000905,0.211926532993509,0.0346769646876666,-0.082426853576506
2034,1711303196.22753,13.0001776218414,-14.96,0.646,-3.276,0.3534,0.0982,-0.1006,0.102,0.557,-9.931,-0.001046,-0.000273,0.000274,0.210926532993509,0.0287769646876666,-0.071426853576506
2035,1711303196.25335,13.0259952545166,-14.955,0.646,-3.276,0.3524,0.0933,-0.1039,0.108,0.555,-9.935,-0.000569,0.000729,-3.9e-05,0.209926532993509,0.0238769646876666,-0.074726853576506
2036,1711303196.27754,13.0501878261566,-14.951,0.647,-3.276,0.3524,0.0933,-0.1006,0.125,0.567,-9.937,-0.001238,-0.000558,-0.000545,0.209926532993509,0.0238769646876666,-0.071426853576506
2037,1711303196.30236,13.0750036239624,-14.944,0.647,-3.276,0.3534,0.0952,-0.1093,0.127,0.571,-9.917,-0.000214,-0.00105,8.4e-05,0.210926532993509,0.0257769646876666,-0.080126853576506
2038,1711303196.32711,13.099757194519,-14.945,0.649,-3.278,0.3543,0.0942,-0.1071,0.14,0.6,-9.919,0.000451,-0.000815,6.1e-05,0.211826532993509,0.0247769646876666,-0.077926853576506
2039,1711303196.35243,13.1250696182251,-14.943,0.65,-3.279,0.3525,0.1002,-0.104,0.143,0.598,-9.907,-0.000334,0.000358,9.4e-05,0.210026532993509,0.0307769646876666,-0.074826853576506
2040,1711303196.37708,13.1497225761414,-14.945,0.65,-3.28,0.3545,0.1051,-0.1094,0.133,0.582,-9.941,0.000527,-5.4e-05,-0.000403,0.212026532993509,0.0356769646876666,-0.080226853576506
2041,1711303196.40321,13.1758549213409,-14.944,0.65,-3.281,0.3534,0.0972,-0.1039,0.119,0.599,-9.911,0.000623,-0.001909,-0.000184,0.210926532993509,0.0277769646876666,-0.074726853576506
2042,1711303196.42737,13.2000162601471,-14.944,0.65,-3.282,0.3506,0.0943,-0.1051,0.109,0.559,-9.919,0.001061,0.001161,0.00054,0.208126532993509,0.0248769646876666,-0.075926853576506
2043,1711303196.45245,13.2250909805298,-14.944,0.65,-3.283,0.3534,0.0982,-0.1039,0.135,0.576,-9.945,-3e-05,-0.000284,-0.000205,0.210926532993509,0.0287769646876666,-0.074726853576506
2044,1711303196.47722,13.2498660087585,-14.941,0.65,-3.281,0.3544,0.1031,-0.1061,0.09,0.563,-9.899,0.000619,-0.000235,0.000891,0.211926532993509,0.0336769646876666,-0.076926853576506
2045,1711303196.50196,13.2746033668518,-14.936,0.65,-3.282,0.3506,0.0963,-0.1062,0.113,0.571,-9.933,0.001459,-0.000421,0.000283,0.208126532993509,0.0268769646876666,-0.077026853576506
2046,1711303196.52985,13.3024923801422,-14.935,0.651,-3.282,0.3534,0.0972,-0.105,0.112,0.58,-9.94,0.000468,0.000144,-8e-05,0.210926532993509,0.0277769646876666,-0.075826853576506
2047,1711303196.55231,13.3249514102936,-14.933,0.651,-3.281,0.3552,0.0952,-0.1048,0.105,0.545,-9.954,0.000731,0.001063,-0.000306,0.212726532993509,0.0257769646876666,-0.075626853576506
2048,1711303196.57697,13.3496105670929,-14.933,0.652,-3.28,0.3517,0.1042,-0.1117,0.109,0.599,-9.923,-0.000446,0.000522,-0.000333,0.209226532993509,0.0347769646876666,-0.082526853576506
2049,1711303196.60269,13.3753337860107,-14.927,0.651,-3.278,0.3534,0.0972,-0.1061,0.104,0.556,-9.951,0.000673,0.000461,0.00078,0.210926532993509,0.0277769646876666,-0.076926853576506
2050,1711303196.62794,13.4005839824677,-14.925,0.651,-3.278,0.3543,0.0982,-0.1027,0.122,0.587,-9.95,-0.001328,0.001447,-0.000468,0.211826532993509,0.0287769646876666,-0.073526853576506
2051,1711303196.6522,13.4248487949371,-14.92,0.653,-3.277,0.3534,0.0972,-0.1017,0.124,0.555,-9.937,-0.000271,-0.000685,-0.000232,0.210926532993509,0.0277769646876666,-0.072526853576506
2052,1711303196.67722,13.449859380722,-14.917,0.652,-3.279,0.3534,0.0942,-0.106,0.113,0.554,-9.928,-0.001434,-0.000797,0.001067,0.210926532993509,0.0247769646876666,-0.076826853576506
2053,1711303196.7025,13.4751398563385,-14.914,0.653,-3.278,0.3515,0.0963,-0.1073,0.123,0.576,-9.923,0.000459,0.000464,-0.000131,0.209026532993509,0.0268769646876666,-0.078126853576506
2054,1711303196.72719,13.4998366832733,-14.91,0.653,-3.28,0.3515,0.0972,-0.1051,0.126,0.568,-9.932,-0.000147,-0.000125,9e-05,0.209026532993509,0.0277769646876666,-0.075926853576506
2055,1711303196.75473,13.527370929718,-14.908,0.652,-3.282,0.3534,0.0952,-0.1027,0.114,0.585,-9.91,0.000534,0.000143,-8.1e-05,0.210926532993509,0.0257769646876666,-0.073526853576506
2056,1711303196.77716,13.549800157547,-14.906,0.652,-3.284,0.3533,0.0932,-0.1049,0.105,0.575,-9.905,-0.001043,-0.000326,0.000394,0.210826532993509,0.0237769646876666,-0.075726853576506
2057,1711303196.80263,13.5752754211426,-14.905,0.651,-3.286,0.3552,0.0922,-0.1048,0.125,0.577,-9.913,-0.000285,0.000709,-0.000321,0.212726532993509,0.0227769646876666,-0.075626853576506
2058,1711303196.82712,13.5997655391693,-14.903,0.652,-3.285,0.3552,0.0942,-0.107,0.111,0.58,-9.922,0.001354,-0.000304,0.000819,0.212726532993509,0.0247769646876666,-0.077826853576506
2059,1711303196.85261,13.6252558231354,-14.903,0.651,-3.286,0.3544,0.1031,-0.1006,0.109,0.581,-9.941,-0.000812,0.000449,0.000583,0.211926532993509,0.0336769646876666,-0.071426853576506
2060,1711303196.87781,13.650456905365,-14.904,0.648,-3.285,0.3553,0.1031,-0.106,0.096,0.568,-9.948,0.001095,-0.002096,9.9e-05,0.212826532993509,0.0336769646876666,-0.076826853576506
2061,1711303196.90252,13.6751682758331,-14.9,0.649,-3.282,0.3525,0.0962,-0.1072,0.119,0.541,-9.911,0.000262,0.000738,0.001699,0.210026532993509,0.0267769646876666,-0.078026853576506
2062,1711303196.92763,13.7002730369568,-14.894,0.649,-3.282,0.3524,0.0952,-0.1028,0.105,0.547,-9.962,-0.000392,0.000251,-0.000339,0.209926532993509,0.0257769646876666,-0.073626853576506
2063,1711303196.95245,13.7250936031342,-14.893,0.65,-3.281,0.3553,0.0972,-0.107,0.129,0.566,-9.922,0.000196,-0.000404,-0.000474,0.212826532993509,0.0277769646876666,-0.077826853576506
2064,1711303196.97738,13.7500238418579,-14.89,0.651,-3.28,0.3561,0.0952,-0.1037,0.118,0.549,-9.925,0.000149,7.3e-05,-0.000441,0.213626532993509,0.0257769646876666,-0.074526853576506
2065,1711303197.00243,13.77507853508,-14.889,0.651,-3.281,0.3535,0.1012,-0.1094,0.124,0.589,-9.918,0.000553,-0.000656,0.000776,0.211026532993509,0.0317769646876666,-0.080226853576506
2066,1711303197.02735,13.7999947071075,-14.885,0.65,-3.28,0.3534,0.0962,-0.1082,0.128,0.569,-9.948,0.000709,-0.00022,0.000244,0.210926532993509,0.0267769646876666,-0.079026853576506
2067,1711303197.05246,13.8251061439514,-14.882,0.65,-3.281,0.3525,0.0972,-0.1039,0.119,0.57,-9.929,-0.001532,-0.000805,-0.00049,0.210026532993509,0.0277769646876666,-0.074726853576506
2068,1711303197.07734,13.8499865531921,-14.876,0.649,-3.281,0.3534,0.0972,-0.1071,0.087,0.574,-9.927,1.6e-05,0.000286,0.00068,0.210926532993509,0.0277769646876666,-0.077926853576506
2069,1711303197.1027,13.8753473758698,-14.872,0.649,-3.282,0.3526,0.1071,-0.1073,0.099,0.572,-9.921,0.000169,-6.5e-05,0.000693,0.210126532993509,0.0376769646876666,-0.078126853576506
2070,1711303197.12733,13.899974822998,-14.873,0.648,-3.283,0.3507,0.1002,-0.1074,0.091,0.575,-9.948,-4.5e-05,0.000627,-0.000493,0.208226532993509,0.0307769646876666,-0.078226853576506
2071,1711303197.1525,13.9251453876495,-14.872,0.648,-3.284,0.3498,0.1052,-0.102,0.106,0.566,-9.944,-0.000862,-0.000369,0.001701,0.207326532993509,0.0357769646876666,-0.072826853576506
2072,1711303197.17735,13.9499974250793,-14.868,0.648,-3.284,0.3534,0.0992,-0.1061,0.102,0.596,-9.944,0.00128,0.000183,0.001755,0.210926532993509,0.0297769646876666,-0.076926853576506
2073,1711303197.20242,13.9750669002533,-14.866,0.649,-3.284,0.3516,0.1002,-0.1062,0.11,0.56,-9.944,0.000416,0.000191,0.000835,0.209126532993509,0.0307769646876666,-0.077026853576506
2074,1711303197.22752,14.0001661777496,-14.866,0.65,-3.285,0.3543,0.0942,-0.106,0.124,0.579,-9.925,0.001078,0.000412,-0.000492,0.211826532993509,0.0247769646876666,-0.076826853576506
2075,1711303197.25447,14.0271179676056,-14.866,0.65,-3.285,0.3553,0.0991,-0.1038,0.119,0.578,-9.95,-6.3e-05,-0.000347,-0.000956,0.212826532993509,0.0296769646876666,-0.074626853576506
2076,1711303197.27748,14.0501194000244,-14.863,0.652,-3.284,0.3544,0.1011,-0.1071,0.115,0.557,-9.943,-0.000465,0.000331,0.00051,0.211926532993509,0.0316769646876666,-0.077926853576506
2077,1711303197.3028,14.0754451751709,-14.86,0.652,-3.284,0.3506,0.0933,-0.1062,0.094,0.604,-9.937,-0.000188,-0.001216,-0.000184,0.208126532993509,0.0238769646876666,-0.077026853576506
2078,1711303197.32783,14.1004776954651,-14.856,0.65,-3.283,0.3525,0.0972,-0.1072,0.093,0.559,-9.919,0.000513,-0.000528,0.001098,0.210026532993509,0.0277769646876666,-0.078026853576506
2079,1711303197.35232,14.1249661445618,-14.853,0.65,-3.283,0.3535,0.1061,-0.1062,0.11,0.559,-9.915,0.000756,-0.000151,0.00039,0.211026532993509,0.0366769646876666,-0.077026853576506
2080,1711303197.37739,14.1500353813171,-14.851,0.649,-3.282,0.3553,0.0972,-0.1059,0.09,0.598,-9.937,-4.5e-05,-0.001695,-3.9e-05,0.212826532993509,0.0277769646876666,-0.076726853576506
2081,1711303197.40386,14.1765005588531,-14.847,0.65,-3.283,0.3506,0.0943,-0.1051,0.114,0.571,-9.942,0.000162,0.000366,0.000852,0.208126532993509,0.0248769646876666,-0.075926853576506
2082,1711303197.42711,14.1997573375702,-14.846,0.649,-3.283,0.3516,0.0973,-0.1095,0.128,0.569,-9.965,0.000358,-0.001092,0.00012,0.209126532993509,0.0278769646876666,-0.080326853576506
2083,1711303197.45253,14.2251710891724,-14.845,0.649,-3.282,0.3534,0.0962,-0.106,0.103,0.578,-9.932,0.000425,-0.000455,-0.000632,0.210926532993509,0.0267769646876666,-0.076826853576506
2084,1711303197.4774,14.2500436306,-14.842,0.648,-3.28,0.3515,0.0963,-0.1029,0.115,0.567,-9.941,0.001056,-0.000786,-5.6e-05,0.209026532993509,0.0268769646876666,-0.073726853576506
2085,1711303197.50247,14.2751111984253,-14.84,0.649,-3.28,0.3533,0.0913,-0.106,0.108,0.566,-9.913,-0.000662,-0.000232,-0.00038,0.210826532993509,0.0218769646876666,-0.076826853576506
2086,1711303197.52732,14.2999684810638,-14.84,0.649,-3.28,0.3543,0.0922,-0.107,0.11,0.556,-9.914,0.000881,0.000557,-0.000148,0.211826532993509,0.0227769646876666,-0.077826853576506
2087,1711303197.55245,14.3250923156738,-14.836,0.649,-3.28,0.3534,0.0952,-0.1049,0.113,0.565,-9.927,-0.000248,0.000277,-0.000956,0.210926532993509,0.0257769646876666,-0.075726853576506
2088,1711303197.57726,14.3498995304108,-14.837,0.65,-3.28,0.3533,0.0932,-0.1104,0.116,0.554,-9.92,-9.2e-05,5.8e-05,-0.00023,0.210826532993509,0.0237769646876666,-0.081226853576506
2089,1711303197.60208,14.3747265338898,-14.834,0.651,-3.281,0.3524,0.0952,-0.1061,0.125,0.585,-9.927,-0.000421,0.00013,0.000531,0.209926532993509,0.0257769646876666,-0.076926853576506
2090,1711303197.62705,14.3996913433075,-14.829,0.651,-3.281,0.3534,0.0942,-0.106,0.12,0.588,-9.932,0.000423,0.00089,0.00127,0.210926532993509,0.0247769646876666,-0.076826853576506
2091,1711303197.65233,14.4249722957611,-14.827,0.651,-3.282,0.3506,0.0953,-0.104,0.116,0.586,-9.947,0.001141,0.000217,0.001005,0.208126532993509,0.0258769646876666,-0.074826853576506
2092,1711303197.6772,14.449844121933,-14.825,0.652,-3.282,0.3506,0.0973,-0.1117,0.114,0.593,-9.922,0.000306,0.000544,0.000135,0.208126532993509,0.0278769646876666,-0.082526853576506
2093,1711303197.70231,14.4749510288239,-14.823,0.651,-3.283,0.3506,0.0973,-0.1062,0.051,0.571,-9.955,0.00016,9.9e-05,0.000463,0.208126532993509,0.0278769646876666,-0.077026853576506
2094,1711303197.72836,14.5010080337524,-14.819,0.651,-3.282,0.3515,0.0943,-0.1105,0.112,0.544,-9.931,0.001193,-0.00032,0.001014,0.209026532993509,0.0248769646876666,-0.081326853576506
2095,1711303197.75298,14.525621175766,-14.814,0.651,-3.282,0.3544,0.0982,-0.1126,0.092,0.585,-9.876,-0.000483,-0.00075,0.000693,0.211926532993509,0.0287769646876666,-0.083426853576506
2096,1711303197.77714,14.5497796535492,-14.81,0.651,-3.283,0.3524,0.0943,-0.1039,0.081,0.609,-9.927,-0.001162,0.001115,8.1e-05,0.209926532993509,0.0248769646876666,-0.074726853576506
2097,1711303197.80309,14.5757308006287,-14.806,0.65,-3.282,0.3516,0.1032,-0.1062,0.09,0.511,-9.974,0.001967,-0.000521,0.00076,0.209126532993509,0.0337769646876666,-0.077026853576506
2098,1711303197.82704,14.5996854305267,-14.807,0.651,-3.282,0.3497,0.0973,-0.1074,0.078,0.587,-9.909,-0.000698,-0.000785,0.000432,0.207226532993509,0.0278769646876666,-0.078226853576506
2099,1711303197.85295,14.625598192215,-14.804,0.651,-3.282,0.3506,0.0953,-0.1073,0.092,0.587,-9.891,-0.001269,0.00063,0.001379,0.208126532993509,0.0258769646876666,-0.078126853576506
2100,1711303197.87812,14.6507661342621,-14.803,0.651,-3.282,0.3489,0.1033,-0.1185,0.074,0.535,-9.941,0.000676,0.000764,-0.000385,0.206426532993509,0.0338769646876666,-0.089326853576506
2101,1711303197.90292,14.6755650043488,-14.804,0.651,-3.282,0.3498,0.1013,-0.1107,0.114,0.567,-9.932,0.000171,-0.000335,0.000889,0.207326532993509,0.0318769646876666,-0.081526853576506
2102,1711303197.92677,14.6994166374207,-14.804,0.651,-3.282,0.4458,0.0998,-0.0146,0.12,0.604,-9.893,-0.000865,-0.000599,0.001095,0.303326532993509,0.0303769646876666,0.014573146423494
2103,1711303197.95465,14.7272953987122,-14.803,0.652,-3.282,0.4165,0.1125,-0.054,0.134,0.566,-10.117,0.001499,0.000419,0.000449,0.274026532993509,0.0430769646876666,-0.024826853576506
2104,1711303197.97741,14.7500514984131,-14.803,0.652,-3.284,0.4006,0.103,-0.0724,0.173,0.53,-10.018,-0.004218,-0.001149,0.000811,0.258126532993509,0.0335769646876666,-0.043226853576506
2105,1711303198.00285,14.7754912376404,-14.803,0.652,-3.283,0.3933,0.1071,-0.0773,0.06,0.573,-9.711,-0.002479,-0.000384,0.000494,0.250826532993509,0.0376769646876666,-0.048126853576506
2106,1711303198.02768,14.8003253936768,-14.802,0.651,-3.281,0.3923,0.1022,-0.0806,0.128,0.53,-10.058,0.001969,0.00015,0.00078,0.249826532993509,0.0327769646876666,-0.051426853576506
2107,1711303198.05403,14.8266723155975,-14.801,0.651,-3.281,0.384,0.1054,-0.0899,0.152,0.546,-9.967,0.000652,0.001094,-0.000264,0.241526532993509,0.0359769646876666,-0.060726853576506
2108,1711303198.07767,14.8503088951111,-14.802,0.652,-3.28,0.3795,0.1075,-0.0979,0.069,0.724,-9.804,0.000243,0.000545,0.000551,0.237026532993509,0.0380769646876666,-0.068726853576506
2109,1711303198.10275,14.8753907680511,-14.802,0.652,-3.279,0.3767,0.1095,-0.1014,0.109,0.578,-10.037,0.001404,-0.00123,0.000682,0.234226532993509,0.0400769646876666,-0.072226853576506
2110,1711303198.12735,14.8999955654144,-14.802,0.651,-3.279,0.3693,0.1047,-0.1051,0.131,0.508,-9.961,-0.003121,-0.001326,-0.000856,0.226826532993509,0.0352769646876666,-0.075926853576506
2111,1711303198.15235,14.9249894618988,-14.803,0.65,-3.277,0.3758,0.1075,-0.1004,0.029,0.62,-9.913,-0.001808,-0.000809,0.001812,0.233326532993509,0.0380769646876666,-0.071226853576506
2112,1711303198.17762,14.9502665996552,-14.803,0.649,-3.278,0.386,0.1142,-0.091,0.196,0.471,-10.045,-0.003997,-0.000299,0.000974,0.243526532993509,0.0447769646876666,-0.061826853576506
2113,1711303198.20277,14.9754102230072,-14.804,0.649,-3.279,0.3914,0.1062,-0.0829,0.056,0.579,-9.761,-0.002213,0.000249,-9e-06,0.248926532993509,0.0367769646876666,-0.053726853576506
2114,1711303198.22778,15.0004251003265,-14.803,0.65,-3.279,0.3777,0.1115,-0.1036,0.074,0.615,-9.913,0.001018,0.001162,0.00113,0.235226532993509,0.0420769646876666,-0.074426853576506
2115,1711303198.25261,15.0252573490143,-14.803,0.653,-3.28,0.374,0.1096,-0.106,0.213,0.449,-10.088,0.000383,0.003675,-0.000938,0.231526532993509,0.0401769646876666,-0.076826853576506
2116,1711303198.27746,15.0501067638397,-14.806,0.655,-3.28,0.3703,0.1097,-0.1062,0.137,0.654,-9.812,0.0011,0.001007,-0.001578,0.227826532993509,0.0402769646876666,-0.077026853576506
2117,1711303198.30245,15.0750894546509,-14.81,0.653,-3.279,0.3766,0.1046,-0.1003,0.043,0.653,-10.005,0.002241,-0.003398,-0.000311,0.234126532993509,0.0351769646876666,-0.071126853576506
2118,1711303198.32747,15.1001136302948,-14.81,0.648,-3.28,0.3703,0.1126,-0.1128,-0.022,0.64,-9.908,-0.001953,-0.002766,0.002577,0.227826532993509,0.0431769646876666,-0.083626853576506
2119,1711303198.35223,15.1248722076416,-14.81,0.649,-3.283,0.3702,0.1077,-0.1095,0.292,0.524,-10.128,-0.006736,0.003298,0.001679,0.227726532993509,0.0382769646876666,-0.080326853576506
2120,1711303198.37751,15.1501519680023,-14.815,0.657,-3.283,0.3665,0.1078,-0.1108,0.343,0.352,-9.749,-0.004951,0.002953,-0.001547,0.224026532993509,0.0383769646876666,-0.081626853576506
2121,1711303198.40236,15.1750025749207,-14.821,0.658,-3.282,0.3637,0.1069,-0.111,-0.067,0.684,-10.09,0.010598,0.002545,-0.000902,0.221226532993509,0.0374769646876666,-0.081826853576506
2122,1711303198.42749,15.200131893158,-14.824,0.657,-3.276,0.3628,0.1079,-0.1133,-0.061,0.372,-9.82,-0.000408,-0.001451,0.002081,0.220326532993509,0.0384769646876666,-0.084126853576506
2123,1711303198.45242,15.2250671386719,-14.827,0.655,-3.281,0.3629,0.1128,-0.1243,0.411,0.754,-10.15,0.006516,0.003555,0.000957,0.220426532993509,0.0433769646876666,-0.095126853576506
2124,1711303198.47739,15.2500348091125,-14.834,0.657,-3.285,0.3629,0.1099,-0.1177,0.267,0.509,-9.907,-0.004124,0.000123,-0.001635,0.220426532993509,0.0404769646876666,-0.088526853576506
2125,1711303198.50242,15.2750658988953,-14.837,0.657,-3.283,0.362,0.1089,-0.1243,-0.115,0.591,-9.748,-0.002587,-0.001441,0.002783,0.219526532993509,0.0394769646876666,-0.095126853576506
2126,1711303198.52721,15.2998514175415,-14.84,0.653,-3.277,0.3601,0.107,-0.1178,0.178,0.361,-10.11,0.002992,-0.002295,0.002003,0.217626532993509,0.0375769646876666,-0.088626853576506
2127,1711303198.55205,15.324695110321,-14.845,0.653,-3.277,0.36,0.106,-0.1189,0.281,0.622,-9.951,-0.00241,0.000518,-0.001256,0.217526532993509,0.0365769646876666,-0.089726853576506
2128,1711303198.57724,15.3498868942261,-14.849,0.656,-3.277,0.3619,0.1079,-0.1254,0.178,0.704,-9.738,-0.001,0.000123,0.001509,0.219426532993509,0.0384769646876666,-0.096226853576506
2129,1711303198.60202,15.3746657371521,-14.853,0.655,-3.28,0.361,0.1099,-0.12,0.066,0.573,-9.887,0.004834,0.000551,0.000918,0.218526532993509,0.0404769646876666,-0.090826853576506
2130,1711303198.62698,15.3996260166168,-14.858,0.656,-3.278,0.3638,0.1078,-0.1132,0.131,0.561,-9.784,0.004284,0.000513,-0.001951,0.221326532993509,0.0383769646876666,-0.084026853576506
2131,1711303198.65239,15.4250292778015,-14.864,0.656,-3.277,0.361,0.1059,-0.1145,0.222,0.712,-9.716,0.004057,-0.000184,-0.001813,0.218526532993509,0.0364769646876666,-0.085326853576506
2132,1711303198.67728,15.4499218463898,-14.864,0.657,-3.277,0.3599,0.101,-0.1057,0.215,0.592,-10.024,0.008125,0.001172,0.000219,0.217426532993509,0.0315769646876666,-0.076526853576506
2133,1711303198.70217,15.4748122692108,-14.865,0.657,-3.278,0.3608,0.1,-0.1045,0.15,0.633,-9.939,0.00389,0.000261,-0.001562,0.218326532993509,0.0305769646876666,-0.075326853576506
2134,1711303198.72737,15.5000092983246,-14.864,0.656,-3.277,0.3609,0.102,-0.1034,0.199,0.874,-10.026,0.003155,0.001418,-0.000483,0.218426532993509,0.0325769646876666,-0.074226853576506
2135,1711303198.75278,15.5254285335541,-14.864,0.655,-3.278,0.3527,0.1081,-0.1161,0.156,0.696,-10.05,-0.000103,-0.000718,0.000439,0.210226532993509,0.0386769646876666,-0.086926853576506
2136,1711303198.77711,15.5497512817383,-14.865,0.654,-3.278,0.3515,0.0963,-0.1084,0.036,0.61,-9.725,-0.00175,0.000955,0.001252,0.209026532993509,0.0268769646876666,-0.079226853576506
2137,1711303198.80299,15.5756316184998,-14.864,0.654,-3.278,0.3489,0.1052,-0.1163,0.107,0.446,-9.754,0.000728,-0.0011,-0.000864,0.206426532993509,0.0357769646876666,-0.087126853576506
2138,1711303198.82713,15.5997724533081,-14.865,0.655,-3.277,0.3488,0.0993,-0.1151,0.264,0.464,-10.195,0.006085,0.000305,-0.000731,0.206326532993509,0.0298769646876666,-0.085926853576506
2139,1711303198.85288,15.6255242824554,-14.865,0.656,-3.277,0.3452,0.1043,-0.1209,0.113,0.627,-10.105,0.002561,-0.000963,0.000277,0.202726532993509,0.0348769646876666,-0.091726853576506
2140,1711303198.87782,15.6504588127136,-14.866,0.657,-3.276,0.3506,0.0973,-0.115,-0.055,0.748,-9.763,0.002093,0.002268,0.001094,0.208126532993509,0.0278769646876666,-0.085826853576506
2141,1711303198.90302,15.6756629943848,-14.865,0.657,-3.277,0.3488,0.1003,-0.1174,0.128,0.508,-9.792,0.000724,-0.00041,0.000656,0.206326532993509,0.0308769646876666,-0.088226853576506
2142,1711303198.92776,15.700404882431,-14.865,0.657,-3.276,0.347,0.0993,-0.1153,0.239,0.537,-10.121,0.003853,0.000398,-0.000273,0.204526532993509,0.0298769646876666,-0.086126853576506
2143,1711303198.95277,15.7254109382629,-14.864,0.656,-3.275,0.349,0.1112,-0.1175,0.065,0.621,-9.96,0.002603,0.000268,0.001605,0.206526532993509,0.0417769646876666,-0.088326853576506
2144,1711303198.97775,15.750394821167,-14.865,0.655,-3.277,0.3498,0.0993,-0.1162,-0.013,0.67,-9.688,-0.00262,-0.000345,0.001487,0.207326532993509,0.0298769646876666,-0.087026853576506
2145,1711303199.00253,15.7751705646515,-14.866,0.656,-3.277,0.346,0.0984,-0.1175,0.19,0.499,-9.972,-0.001253,-0.000566,0.000298,0.203526532993509,0.0289769646876666,-0.088326853576506
2146,1711303199.02742,15.8000686168671,-14.868,0.655,-3.276,0.3479,0.0983,-0.1174,0.153,0.546,-10.236,0.001511,-0.000308,-0.000725,0.205426532993509,0.0288769646876666,-0.088226853576506
2147,1711303199.05238,15.8250222206116,-14.869,0.656,-3.277,0.346,0.0984,-0.1164,0.014,0.625,-9.803,-0.002477,-0.000352,0.000374,0.203526532993509,0.0289769646876666,-0.087226853576506
2148,1711303199.07764,15.8502883911133,-14.87,0.656,-3.277,0.3471,0.1063,-0.1219,0.064,0.604,-9.683,0.000499,0.000659,0.001299,0.204626532993509,0.0368769646876666,-0.092726853576506
2149,1711303199.10349,15.876131772995,-14.869,0.657,-3.278,0.3471,0.1083,-0.1176,0.19,0.519,-10.055,0.002626,0.001232,0.000513,0.204626532993509,0.0388769646876666,-0.088426853576506
2150,1711303199.12764,15.9002819061279,-14.872,0.657,-3.278,0.347,0.1003,-0.1164,0.107,0.573,-10.113,0.001013,0.001232,-0.000345,0.204526532993509,0.0308769646876666,-0.087226853576506
2151,1711303199.15263,15.9252729415894,-14.874,0.657,-3.278,0.3488,0.1003,-0.1152,0.058,0.628,-9.83,0.000883,-0.000127,0.000997,0.206326532993509,0.0308769646876666,-0.086026853576506
2152,1711303199.17747,15.9501121044159,-14.875,0.657,-3.28,0.3461,0.1043,-0.1143,0.104,0.645,-9.67,0.000468,-0.000493,0.000645,0.203626532993509,0.0348769646876666,-0.085126853576506
2153,1711303199.2029,15.9755456447601,-14.876,0.658,-3.281,0.3461,0.1014,-0.1153,0.213,0.427,-9.893,-0.00028,0.000515,0.000725,0.203626532993509,0.0319769646876666,-0.086126853576506
2154,1711303199.22754,16.0001809597015,-14.877,0.657,-3.282,0.346,0.0984,-0.1153,0.163,0.597,-10.198,0.00037,-0.001787,-2.4e-05,0.203526532993509,0.0289769646876666,-0.086126853576506
2155,1711303199.25238,16.0250232219696,-14.877,0.657,-3.283,0.3479,0.0983,-0.113,0.064,0.664,-10.057,-0.001328,-0.000697,0.000918,0.205426532993509,0.0288769646876666,-0.083826853576506
2156,1711303199.27728,16.0499215126038,-14.876,0.657,-3.285,0.3489,0.1033,-0.1185,0.106,0.574,-9.794,-0.000552,0.000294,0.002213,0.206426532993509,0.0338769646876666,-0.089326853576506
2157,1711303199.3022,16.0748469829559,-14.875,0.656,-3.287,0.3479,0.1003,-0.1196,0.122,0.62,-9.683,-0.002761,-0.000161,0.001963,0.205426532993509,0.0308769646876666,-0.090426853576506
2158,1711303199.32754,16.1001830101013,-14.878,0.655,-3.29,0.3488,0.0983,-0.1195,0.119,0.392,-9.748,0.000159,-0.000435,8e-06,0.206326532993509,0.0288769646876666,-0.090326853576506
2159,1711303199.35251,16.1251518726349,-14.879,0.655,-3.291,0.3479,0.1013,-0.1174,0.131,0.557,-9.981,0.001274,-0.000759,-0.000483,0.205426532993509,0.0318769646876666,-0.088226853576506
2160,1711303199.37746,16.1501014232635,-14.882,0.655,-3.292,0.3479,0.1003,-0.1174,0.066,0.847,-10.025,-0.003074,-0.000749,0.001635,0.205426532993509,0.0308769646876666,-0.088226853576506
2161,1711303199.40212,16.1747651100159,-14.881,0.655,-3.298,0.348,0.1023,-0.1196,0.111,0.567,-10.16,-0.005396,0.001056,0.002762,0.205526532993509,0.0328769646876666,-0.090426853576506
2162,1711303199.42732,16.1999671459198,-14.88,0.655,-3.301,0.3488,0.0973,-0.1217,0.062,0.598,-10.087,-0.004389,0.00151,0.003236,0.206326532993509,0.0278769646876666,-0.092526853576506
2163,1711303199.45241,16.225058555603,-14.879,0.654,-3.304,0.3507,0.0993,-0.1161,0.115,0.596,-9.931,-0.003384,0.001305,0.001164,0.208226532993509,0.0298769646876666,-0.086926853576506
2164,1711303199.47729,16.2499370574951,-14.878,0.654,-3.308,0.3489,0.1043,-0.1185,0.109,0.588,-9.882,-0.00666,0.001138,0.002341,0.206426532993509,0.0348769646876666,-0.089326853576506
2165,1711303199.5022,16.2748444080353,-14.877,0.655,-3.312,0.3517,0.1052,-0.1183,0.149,0.474,-9.904,-0.006166,0.00077,0.003865,0.209226532993509,0.0357769646876666,-0.089126853576506
