seq,stamp,elapsed_time,yaw,pitch,roll,mag_x,mag_y,mag_z,accel_x,accel_y,accel_z,gyro_x,gyro_y,gyro_z
510,1711305164.0044553,0,6.584,0.537,-4.548,0.316,0.0714,-0.1213,0.103,0.768,-10.06,-5.6e-05,0.000241,0.000602
511,1711305164.0277927,0.023337364196777344,6.585,0.537,-4.549,0.3179,0.0743,-0.1157,0.081,0.883,-9.926,-0.001222,-0.000242,0.000306
512,1711305164.053051,0.04859566688537598,6.585,0.537,-4.548,0.3178,0.0703,-0.1157,0.103,0.736,-10.077,-0.000585,-0.000332,-0.000804
513,1711305164.077402,0.07294678688049316,6.586,0.537,-4.549,0.3188,0.0763,-0.1179,0.112,0.808,-10.063,-3.3e-05,0.000602,8.2e-05
514,1711305164.102589,0.09813356399536133,6.586,0.536,-4.55,0.3179,0.0733,-0.1179,0.093,0.87,-9.915,-0.000898,-0.00121,0.000642
515,1711305164.1275117,0.12305641174316406,6.588,0.536,-4.549,0.316,0.0734,-0.1235,0.126,0.745,-10.065,-0.001809,-0.000384,-0.000617
516,1711305164.1527343,0.14827895164489746,6.589,0.537,-4.548,0.3188,0.0743,-0.1135,0.122,0.733,-10.054,0.001408,0.00057,0.001058
517,1711305164.1776657,0.17321038246154785,6.591,0.535,-4.548,0.3197,0.0703,-0.1254,0.094,0.917,-9.966,-0.001099,-0.000862,0.000665
518,1711305164.2061012,0.2016458511352539,6.592,0.536,-4.547,0.3188,0.0743,-0.1178,0.106,0.717,-10.072,0.000319,0.000333,0.000275
519,1711305164.227582,0.22312664985656738,6.591,0.536,-4.546,0.3161,0.0753,-0.1147,0.106,0.755,-10.014,0.000213,3.4e-05,-0.000407
520,1711305164.2523265,0.24787116050720215,6.585,0.536,-4.547,0.3179,0.0773,-0.1201,0.094,0.911,-9.957,-0.000155,0.000338,-0.000658
521,1711305164.2776933,0.273237943649292,6.587,0.536,-4.546,0.3169,0.0714,-0.1201,0.118,0.715,-10.037,-0.002177,0.000151,-0.000646
522,1711305164.302526,0.29807066917419434,6.588,0.536,-4.545,0.3152,0.0773,-0.1192,0.092,0.744,-10.057,0.000872,-0.000553,-0.000805
523,1711305164.3271117,0.32265639305114746,6.588,0.536,-4.545,0.316,0.0714,-0.118,0.076,0.932,-9.963,-3e-05,-0.001519,0.000452
524,1711305164.3520877,0.34763240814208984,6.59,0.536,-4.545,0.3169,0.0714,-0.1146,0.088,0.723,-9.975,0.000186,0.000841,-9.3e-05
525,1711305164.377975,0.3735196590423584,6.59,0.536,-4.545,0.3169,0.0704,-0.1234,0.076,0.779,-10.037,-0.000582,0.001035,-0.00075
526,1711305164.4020836,0.3976283073425293,6.592,0.536,-4.547,0.316,0.0724,-0.1202,0.086,0.877,-9.962,0.000302,-0.001433,-0.000331
527,1711305164.427029,0.4225735664367676,6.593,0.537,-4.547,0.3179,0.0733,-0.119,0.117,0.777,-10.067,-0.002827,0.000334,0.000209
528,1711305164.451975,0.44751977920532227,6.593,0.536,-4.548,0.3169,0.0704,-0.1135,0.096,0.789,-10.068,0.00056,-0.000229,0.00098
529,1711305164.476935,0.47247958183288574,6.595,0.537,-4.548,0.316,0.0694,-0.1147,0.076,0.888,-9.929,-0.000591,-0.000265,0.000644
530,1711305164.504142,0.49968671798706055,6.595,0.536,-4.547,0.3178,0.0684,-0.1189,0.131,0.719,-10.032,-0.000521,0.000754,-0.00169
531,1711305164.527274,0.5228185653686523,6.598,0.536,-4.548,0.3171,0.0813,-0.1158,0.089,0.742,-10.05,0.000873,-0.000103,0.00136
532,1711305164.5546308,0.5501754283905029,6.599,0.535,-4.548,0.3169,0.0674,-0.1201,0.079,0.891,-9.898,-0.000114,-0.00016,-0.000339
533,1711305164.577238,0.5727827548980713,6.601,0.535,-4.548,0.3169,0.0714,-0.1157,0.15,0.769,-10.057,-0.001503,-0.000432,0.000285
534,1711305164.6018713,0.5974159240722656,6.6,0.535,-4.547,0.3188,0.0703,-0.1145,0.088,0.74,-10.036,0.002005,-0.001291,0.000336
535,1711305164.6268675,0.6224122047424316,6.598,0.534,-4.547,0.3188,0.0733,-0.1156,0.085,0.911,-10.001,-1.8e-05,7.4e-05,0.000416
536,1711305164.652277,0.6478216648101807,6.598,0.534,-4.547,0.317,0.0763,-0.1158,0.112,0.734,-10.013,-0.00083,-0.00017,0.001149
537,1711305164.6771648,0.6727094650268555,6.597,0.534,-4.547,0.3178,0.0703,-0.1157,0.089,0.759,-10.041,-0.000258,0.000629,-0.000149
538,1711305164.7018185,0.6973631381988525,6.6,0.534,-4.548,0.3179,0.0783,-0.1136,0.099,0.888,-9.952,-0.00038,-0.000224,0.000849
539,1711305164.7268152,0.7223598957061768,6.601,0.534,-4.546,0.3161,0.0793,-0.1159,0.143,0.727,-10.038,-0.000615,-0.000242,-0.000188
540,1711305164.752139,0.7476837635040283,6.6,0.533,-4.547,0.316,0.0724,-0.1136,0.078,0.749,-10.095,-4.9e-05,0.000278,0.000372
541,1711305164.777004,0.7725486755371094,6.598,0.533,-4.546,0.3161,0.0803,-0.1159,0.117,0.906,-9.983,0.001237,-0.001213,0.000546
542,1711305164.8020618,0.7976064682006836,6.6,0.533,-4.546,0.316,0.0704,-0.1169,0.08,0.759,-10.005,-0.001521,-0.000937,-0.000366
543,1711305164.8274112,0.822955846786499,6.602,0.532,-4.547,0.3179,0.0733,-0.1201,0.072,0.775,-10.06,0.000151,0.000662,0.001361
544,1711305164.8527493,0.8482940196990967,6.601,0.532,-4.549,0.3198,0.0782,-0.1167,0.089,0.872,-9.962,-0.001186,-3.8e-05,-0.000615
545,1711305164.8769777,0.8725223541259766,6.601,0.531,-4.549,0.3151,0.0704,-0.1158,0.118,0.783,-10.008,-0.003101,0.000556,-0.000796
546,1711305164.9026923,0.8982369899749756,6.603,0.532,-4.55,0.3169,0.0704,-0.119,0.087,0.707,-10.016,0.000147,0.000115,0.000709
547,1711305164.928467,0.9240117073059082,6.605,0.531,-4.55,0.3161,0.0763,-0.118,0.095,0.884,-9.958,0.000132,0.00015,-0.000575
548,1711305164.9533823,0.9489269256591797,6.608,0.531,-4.55,0.3169,0.0714,-0.1168,0.115,0.754,-10.004,-7.1e-05,0.000248,-0.000167
549,1711305164.9776263,0.9731709957122803,6.608,0.532,-4.551,0.3178,0.0703,-0.1168,0.113,0.742,-10.032,0.00069,0.000608,0.000347
550,1711305165.0023205,0.9978652000427246,6.61,0.533,-4.552,0.3179,0.0743,-0.119,0.085,0.955,-9.974,-0.001357,0.000843,0.000241
551,1711305165.0274434,1.0229880809783936,6.608,0.533,-4.552,0.3169,0.0724,-0.1179,0.13,0.77,-10.006,-0.00079,-0.000603,-0.00027
552,1711305165.052699,1.048243761062622,6.607,0.533,-4.552,0.3188,0.0713,-0.1156,0.122,0.758,-9.974,0.000704,-0.000176,-0.000668
553,1711305165.0775733,1.073117971420288,6.609,0.532,-4.553,0.3179,0.0733,-0.1135,0.105,0.886,-10.047,0.000466,-0.000433,0.00048
554,1711305165.1031556,1.0987002849578857,6.61,0.533,-4.55,0.3151,0.0744,-0.1181,0.135,0.763,-10.014,-0.001309,0.000863,-0.001255
555,1711305165.1271508,1.1226954460144043,6.608,0.531,-4.552,0.3178,0.0684,-0.1156,0.072,0.777,-10.007,-0.000102,0.000136,-0.000619
556,1711305165.1571536,1.152698278427124,6.606,0.531,-4.552,0.3207,0.0742,-0.1166,0.077,0.839,-9.988,0.002052,-1.2e-05,-0.000749
557,1711305165.1775193,1.1730639934539795,6.607,0.53,-4.55,0.3169,0.0714,-0.1135,0.085,0.777,-10.017,-0.001482,0.000366,-0.000861
558,1711305165.2032566,1.1988012790679932,6.607,0.53,-4.55,0.3142,0.0774,-0.1149,0.074,0.727,-10.032,0.001263,-0.000156,0.000872
559,1711305165.227534,1.223078727722168,6.607,0.53,-4.551,0.317,0.0733,-0.1169,0.067,0.899,-9.995,0.000879,-0.000917,0.001621
560,1711305165.2534509,1.2489955425262451,6.609,0.53,-4.549,0.3197,0.0713,-0.1156,0.095,0.767,-10.024,-8.7e-05,-0.0,-0.000308
561,1711305165.2770514,1.2725961208343506,6.608,0.53,-4.55,0.3178,0.0703,-0.1179,0.096,0.773,-10.02,-0.000759,0.000591,-0.000536
562,1711305165.3043742,1.2999188899993896,6.608,0.53,-4.552,0.316,0.0744,-0.1158,0.086,0.866,-9.974,-0.000271,-0.001372,0.000444
563,1711305165.3273523,1.322896957397461,6.609,0.531,-4.552,0.3197,0.0693,-0.1188,0.135,0.804,-9.988,-0.001456,0.000868,-0.000629
564,1711305165.3539193,1.349463939666748,6.612,0.532,-4.55,0.3169,0.0723,-0.1146,0.11,0.709,-9.997,0.002064,0.001691,-0.000376
565,1711305165.376959,1.3725037574768066,6.614,0.531,-4.552,0.3188,0.0713,-0.1156,0.101,0.903,-10.05,0.000142,-0.001196,-3.5e-05
566,1711305165.4034667,1.3990113735198975,6.617,0.532,-4.549,0.3142,0.0774,-0.1138,0.102,0.763,-10.015,-0.000887,-0.000701,0.000503
567,1711305165.427088,1.4226326942443848,6.614,0.531,-4.549,0.3179,0.0723,-0.1135,0.081,0.749,-10.035,0.000388,0.000419,-0.000253
568,1711305165.4535842,1.4491288661956787,6.617,0.532,-4.551,0.3151,0.0724,-0.1148,0.102,0.88,-10.017,0.002043,0.001451,0.001439
569,1711305165.4769428,1.472487449645996,6.618,0.532,-4.549,0.317,0.0743,-0.1169,0.081,0.766,-10.003,-0.00091,0.001113,-0.00084
570,1711305165.5020316,1.4975762367248535,6.62,0.532,-4.548,0.3169,0.0674,-0.1146,0.098,0.706,-10.003,0.00094,0.000511,-0.000745
571,1711305165.526879,1.5224237442016602,6.622,0.531,-4.549,0.3179,0.0733,-0.1113,0.131,0.882,-9.996,0.001222,-0.001852,-0.000459
572,1711305165.553303,1.5488476753234863,6.626,0.531,-4.547,0.3188,0.0763,-0.1168,0.093,0.788,-9.98,-0.001818,0.000874,-0.000821
573,1711305165.5770695,1.5726141929626465,6.625,0.53,-4.548,0.3179,0.0733,-0.1146,0.109,0.74,-10.042,-0.000713,4.8e-05,0.000513
574,1711305165.6036696,1.5992143154144287,6.624,0.531,-4.549,0.3151,0.0704,-0.1158,0.119,0.851,-10.017,-9.4e-05,-4.9e-05,-0.000365
575,1711305165.627243,1.6227877140045166,6.625,0.531,-4.548,0.3169,0.0684,-0.1146,0.121,0.781,-10.026,-0.001226,0.000548,-0.000216
576,1711305165.6561902,1.6517348289489746,6.623,0.532,-4.547,0.3169,0.0733,-0.1158,0.074,0.696,-9.954,0.0006,0.000571,0.00057
577,1711305165.6770818,1.6726264953613281,6.625,0.532,-4.549,0.3178,0.0694,-0.1167,0.086,0.885,-10.024,-0.001205,-0.000599,0.001214
578,1711305165.706777,1.7023217678070068,6.629,0.533,-4.55,0.3152,0.0833,-0.1138,0.102,0.749,-10.01,-0.002169,0.001065,-0.000691
579,1711305165.7274528,1.7229974269866943,6.626,0.533,-4.55,0.317,0.0783,-0.1125,0.068,0.715,-9.973,-0.000174,0.002152,0.000721
580,1711305165.7524147,1.7479593753814697,6.624,0.533,-4.552,0.3188,0.0733,-0.1123,0.113,0.899,-10.028,-0.000962,-0.000396,0.000751
581,1711305165.7769773,1.77252197265625,6.623,0.533,-4.552,0.316,0.0724,-0.1136,0.077,0.795,-9.987,-0.00084,-7.9e-05,-0.000845
582,1711305165.802847,1.798391580581665,6.621,0.533,-4.551,0.3151,0.0764,-0.1159,0.08,0.738,-9.988,0.000226,0.000825,0.000697
583,1711305165.8273818,1.8229265213012695,6.617,0.531,-4.552,0.3178,0.0703,-0.1146,0.092,0.875,-10.022,0.001275,-0.000804,-0.000701
584,1711305165.8527303,1.8482749462127686,6.618,0.532,-4.551,0.316,0.0704,-0.1147,0.107,0.803,-9.946,-0.000551,-0.000252,-0.000638
585,1711305165.877574,1.8731186389923096,6.62,0.531,-4.551,0.3179,0.0733,-0.1124,0.061,0.761,-10.039,-7.8e-05,0.000109,-0.000842
586,1711305165.9041388,1.8996834754943848,6.619,0.531,-4.553,0.3151,0.0714,-0.1158,0.13,0.834,-10.038,7.9e-05,-0.000433,0.001167
587,1711305165.9276617,1.9232063293457031,6.619,0.532,-4.551,0.316,0.0724,-0.1169,0.083,0.81,-9.96,-0.000244,-0.000185,-7.5e-05
588,1711305165.9526002,1.9481449127197266,6.622,0.532,-4.551,0.3197,0.0753,-0.1123,0.098,0.699,-10.015,0.000977,-0.000259,0.001367
589,1711305165.9775336,1.9730782508850098,6.624,0.531,-4.55,0.3178,0.0684,-0.1123,0.104,0.835,-10.059,0.00073,-0.000116,-4.8e-05
590,1711305166.0037642,1.9993088245391846,6.624,0.531,-4.55,0.3169,0.0723,-0.1146,0.105,0.815,-9.978,-0.000502,0.000132,-0.000172
591,1711305166.0275202,2.0230648517608643,6.627,0.531,-4.55,0.3189,0.0782,-0.1135,0.081,0.747,-9.976,-0.000903,0.000729,0.001733
592,1711305166.0524702,2.0480148792266846,6.63,0.53,-4.552,0.3178,0.0674,-0.12,0.103,0.825,-10.054,-0.000321,0.000206,0.001012
593,1711305166.0774043,2.072948932647705,6.632,0.531,-4.552,0.3189,0.0782,-0.1146,0.086,0.847,-9.921,-0.001345,-3e-06,4.2e-05
594,1711305166.1021008,2.0976455211639404,6.63,0.531,-4.551,0.316,0.0714,-0.1114,0.068,0.711,-9.972,-6.3e-05,-0.00012,-0.000634
595,1711305166.1270947,2.1226394176483154,6.63,0.53,-4.553,0.3169,0.0694,-0.1157,0.098,0.88,-10.102,0.000907,-6e-06,0.000528
596,1711305166.1524014,2.1479461193084717,6.632,0.531,-4.552,0.3187,0.0703,-0.1123,0.11,0.79,-9.897,-0.000298,0.000479,9.8e-05
597,1711305166.1772947,2.172839403152466,6.632,0.532,-4.552,0.317,0.0743,-0.118,0.126,0.776,-9.979,0.000416,0.000309,0.000536
598,1711305166.2048433,2.200387954711914,6.634,0.532,-4.554,0.3161,0.0753,-0.1169,0.079,0.846,-10.046,0.001418,0.000298,0.002023
599,1711305166.2271667,2.2227113246917725,6.635,0.532,-4.553,0.3169,0.0694,-0.1157,0.097,0.847,-9.941,0.000585,-0.000514,0.000399
600,1711305166.2529979,2.248542547225952,6.638,0.532,-4.552,0.3178,0.0713,-0.1146,0.076,0.723,-9.976,-0.00015,0.000919,0.000632
601,1711305166.2773335,2.2728781700134277,6.639,0.533,-4.552,0.3187,0.0674,-0.1145,0.092,0.82,-10.044,0.000703,0.000869,-0.000192
602,1711305166.302363,2.297907590866089,6.64,0.534,-4.55,0.317,0.0763,-0.1169,0.076,0.839,-9.957,0.00014,-8.3e-05,-0.000211
603,1711305166.3268723,2.3224170207977295,6.642,0.533,-4.551,0.316,0.0694,-0.1158,0.097,0.752,-9.993,-0.001095,0.000202,0.000816
604,1711305166.3523078,2.3478524684906006,6.643,0.532,-4.551,0.3188,0.0703,-0.1156,0.072,0.794,-10.062,0.000429,0.000257,-0.001018
605,1711305166.3771782,2.372722864151001,6.644,0.532,-4.551,0.3169,0.0704,-0.1135,0.106,0.898,-9.926,0.000393,0.000804,-0.000567
606,1711305166.4023643,2.397908926010132,6.644,0.533,-4.55,0.317,0.0783,-0.1114,0.07,0.681,-10.002,4.3e-05,0.000134,-0.000736
607,1711305166.426983,2.42252779006958,6.641,0.532,-4.55,0.3161,0.0773,-0.1148,0.084,0.895,-10.075,0.001106,0.000362,-9e-06
608,1711305166.4519093,2.4474539756774902,6.643,0.532,-4.55,0.3178,0.0703,-0.1135,0.11,0.817,-9.892,-0.000772,-0.000524,-0.000334
609,1711305166.4770453,2.4725899696350098,6.647,0.532,-4.551,0.3179,0.0723,-0.1157,0.066,0.784,-9.97,-0.00124,-0.000362,0.002105
610,1711305166.5021343,2.4976789951324463,6.645,0.532,-4.553,0.3179,0.0743,-0.1135,0.083,0.799,-10.072,6.1e-05,0.000196,8.2e-05
611,1711305166.5268698,2.522414445877075,6.644,0.532,-4.552,0.317,0.0763,-0.1147,0.085,0.87,-9.861,0.001127,6.6e-05,-0.000849
612,1711305166.5532627,2.548807382583618,6.645,0.532,-4.551,0.3178,0.0703,-0.1179,0.118,0.752,-9.993,0.000167,-0.000137,-0.000143
613,1711305166.576806,2.5723507404327393,6.648,0.532,-4.553,0.3169,0.0733,-0.1136,0.097,0.839,-10.078,0.001524,1e-06,0.001131
614,1711305166.602274,2.597818613052368,6.65,0.532,-4.551,0.3179,0.0783,-0.1136,0.074,0.817,-9.883,-0.001207,0.000324,0.00119
615,1711305166.626644,2.6221885681152344,6.65,0.531,-4.553,0.3188,0.0723,-0.1134,0.101,0.782,-10.003,-0.000825,0.000614,-0.000304
616,1711305166.6524744,2.6480190753936768,6.651,0.532,-4.554,0.3169,0.0694,-0.1146,0.086,0.778,-10.073,0.000638,-0.000381,0.000377
617,1711305166.676881,2.6724257469177246,6.65,0.532,-4.552,0.3169,0.0733,-0.1147,0.084,0.863,-9.923,0.001084,-0.000311,-0.000762
618,1711305166.7026181,2.698162794113159,6.653,0.533,-4.551,0.3197,0.0703,-0.1133,0.113,0.72,-9.945,0.000414,0.001958,0.000288
619,1711305166.7275977,2.723142385482788,6.649,0.533,-4.551,0.3169,0.0694,-0.1146,0.088,0.838,-10.044,0.001932,-0.000429,-0.000496
620,1711305166.7526183,2.7481629848480225,6.648,0.532,-4.549,0.316,0.0744,-0.1147,0.095,0.836,-9.908,4.2e-05,0.000162,-0.000884
621,1711305166.7773268,2.772871494293213,6.646,0.532,-4.549,0.3188,0.0713,-0.1112,0.097,0.755,-10.009,-0.000896,-0.000159,-0.00113
622,1711305166.8032184,2.7987630367279053,6.647,0.532,-4.551,0.3188,0.0733,-0.1112,0.096,0.822,-10.053,0.000818,0.001489,0.001523
623,1711305166.8275447,2.823089361190796,6.648,0.532,-4.55,0.3189,0.0782,-0.1135,0.065,0.84,-9.948,-0.000253,-0.000402,-0.000865
624,1711305166.852705,2.848249673843384,6.644,0.533,-4.548,0.3169,0.0714,-0.1124,0.066,0.712,-9.958,0.00104,0.000357,0.000207
625,1711305166.877238,2.8727827072143555,6.641,0.532,-4.55,0.3179,0.0743,-0.1124,0.109,0.884,-10.105,0.000735,-6.8e-05,-0.000577
626,1711305166.902474,2.8980185985565186,6.642,0.533,-4.547,0.3179,0.0733,-0.1135,0.093,0.789,-9.923,0.000576,0.000283,0.000259
627,1711305166.9272656,2.9228103160858154,6.642,0.533,-4.548,0.3197,0.0693,-0.1144,0.111,0.77,-9.975,-0.000425,-0.000248,-0.000802
628,1711305166.9524457,2.9479904174804688,6.645,0.534,-4.551,0.316,0.0694,-0.1147,0.107,0.827,-10.098,-0.000361,-3.2e-05,0.001102
629,1711305166.977306,2.9728505611419678,6.644,0.533,-4.549,0.3169,0.0704,-0.1135,0.046,0.81,-9.965,-7.3e-05,-0.001199,0.000405
630,1711305167.002101,2.997645616531372,6.643,0.533,-4.549,0.3151,0.0734,-0.1159,0.089,0.771,-9.965,-0.00025,0.000627,0.000404
631,1711305167.0271382,3.0226829051971436,6.643,0.532,-4.55,0.3161,0.0793,-0.1137,0.103,0.799,-10.056,0.001695,0.001488,0.000566
632,1711305167.0521872,3.047731876373291,6.64,0.532,-4.548,0.3169,0.0714,-0.1135,0.058,0.81,-9.965,0.000583,0.001069,-0.000103
633,1711305167.07728,3.072824716567993,6.64,0.532,-4.549,0.3187,0.0703,-0.1123,0.079,0.763,-9.946,-9.6e-05,0.000516,0.000731
634,1711305167.1020062,3.097550868988037,6.641,0.532,-4.551,0.3169,0.0714,-0.1146,0.088,0.776,-10.041,-0.000325,-0.000181,0.00059
635,1711305167.1271958,3.1227405071258545,6.644,0.534,-4.55,0.3169,0.0704,-0.1201,0.092,0.865,-9.946,-0.000596,0.000131,-0.000261
636,1711305167.1523006,3.1478452682495117,6.644,0.535,-4.55,0.317,0.0743,-0.1136,0.097,0.709,-9.976,-5e-05,3.5e-05,0.0006
637,1711305167.1772718,3.172816514968872,6.644,0.533,-4.552,0.3169,0.0704,-0.1091,0.086,0.904,-10.065,-0.000144,-0.001821,0.000149
638,1711305167.207529,3.203073740005493,6.644,0.533,-4.552,0.317,0.0793,-0.1136,0.106,0.819,-9.928,-0.00082,-0.00016,-0.000334
639,1711305167.2274678,3.2230124473571777,6.64,0.532,-4.55,0.3188,0.0743,-0.1135,0.105,0.75,-9.966,-7.2e-05,-0.000716,0.000356
640,1711305167.2522464,3.247791051864624,6.639,0.532,-4.553,0.3198,0.0762,-0.1134,0.137,0.859,-10.032,-0.000279,-0.000227,0.001718
641,1711305167.2772367,3.2727813720703125,6.637,0.533,-4.552,0.3188,0.0743,-0.1145,0.079,0.8,-9.963,0.000147,-0.000735,-0.001242
642,1711305167.3023589,3.297903537750244,6.636,0.533,-4.551,0.3179,0.0773,-0.1135,0.085,0.723,-9.999,4e-05,0.000538,0.000219
643,1711305167.3280823,3.32362699508667,6.637,0.532,-4.553,0.316,0.0714,-0.1158,0.106,0.86,-10.061,-0.000474,0.000171,0.000126
644,1711305167.3519068,3.3474514484405518,6.637,0.532,-4.552,0.3159,0.0664,-0.1135,0.074,0.759,-9.963,0.000286,-0.001411,-0.000171
645,1711305167.3770504,3.3725950717926025,6.638,0.531,-4.551,0.3178,0.0723,-0.1102,0.112,0.805,-10.002,0.000412,0.000243,8.6e-05
646,1711305167.40365,3.3991947174072266,6.638,0.531,-4.553,0.3188,0.0703,-0.12,0.099,0.824,-10.048,-9.1e-05,-0.000169,0.000439
647,1711305167.4270103,3.4225549697875977,6.641,0.531,-4.552,0.3197,0.0713,-0.1123,0.086,0.869,-9.971,-0.001286,-0.000974,-0.000314
648,1711305167.451821,3.4473657608032227,6.643,0.532,-4.552,0.315,0.0684,-0.1147,0.096,0.728,-9.95,0.000921,0.000837,0.000642
649,1711305167.4770377,3.4725823402404785,6.646,0.531,-4.554,0.317,0.0753,-0.1103,0.086,0.848,-10.044,-0.001784,0.000194,0.000764
650,1711305167.5027082,3.4982528686523438,6.643,0.531,-4.554,0.3169,0.0723,-0.1135,0.111,0.847,-9.964,-0.000854,-0.000189,-0.000448
651,1711305167.5267677,3.5223124027252197,6.645,0.532,-4.554,0.3178,0.0703,-0.1146,0.089,0.756,-9.98,-0.000276,0.001111,-0.000457
652,1711305167.5527124,3.5482571125030518,6.645,0.531,-4.556,0.3169,0.0723,-0.1114,0.083,0.845,-10.056,-0.000661,0.000131,0.000196
653,1711305167.577604,3.573148727416992,6.646,0.532,-4.555,0.3151,0.0714,-0.1126,0.105,0.833,-9.962,0.000548,0.000522,-0.000449
654,1711305167.6029449,3.59848952293396,6.648,0.532,-4.554,0.3187,0.0693,-0.109,0.098,0.736,-9.941,-0.000734,-0.000967,-0.000531
655,1711305167.627559,3.623103618621826,6.651,0.531,-4.555,0.3169,0.0733,-0.1103,0.082,0.834,-10.061,0.001377,0.001197,0.000954
656,1711305167.654457,3.6500017642974854,6.652,0.531,-4.554,0.3188,0.0743,-0.1124,0.088,0.797,-9.885,-0.00089,-0.000484,0.000539
657,1711305167.6771884,3.6727330684661865,6.651,0.531,-4.554,0.3178,0.0713,-0.1168,0.084,0.79,-10.031,-0.000497,0.001484,0.000187
658,1711305167.70222,3.6977646350860596,6.653,0.531,-4.556,0.3178,0.0694,-0.1091,0.107,0.813,-10.044,0.000387,0.000866,0.000811
659,1711305167.7274756,3.723020315170288,6.653,0.531,-4.555,0.3178,0.0723,-0.1113,0.091,0.837,-9.938,-0.000438,-0.000458,-0.000425
660,1711305167.752222,3.7477667331695557,6.649,0.531,-4.555,0.3151,0.0724,-0.1126,0.085,0.75,-10.026,-0.000609,0.000706,0.000124
661,1711305167.7771242,3.7726688385009766,6.648,0.53,-4.556,0.3206,0.0703,-0.1144,0.073,0.828,-10.079,0.001961,-0.00038,8e-06
662,1711305167.802138,3.797682762145996,6.648,0.53,-4.554,0.3178,0.0684,-0.1156,0.099,0.841,-9.947,-0.000175,-0.001314,-0.000938
663,1711305167.8274302,3.822974920272827,6.652,0.53,-4.555,0.3169,0.0704,-0.1113,0.096,0.763,-10.014,-0.000172,0.000442,-0.000702
664,1711305167.8523667,3.8479113578796387,6.653,0.529,-4.556,0.3178,0.0713,-0.1102,0.089,0.805,-10.038,0.000428,-0.00115,-0.000187
665,1711305167.8771477,3.872692346572876,6.652,0.528,-4.556,0.3188,0.0723,-0.1101,0.101,0.878,-9.94,0.000271,-0.001518,-0.000325
666,1711305167.9024198,3.8979644775390625,6.65,0.529,-4.554,0.316,0.0714,-0.1125,0.063,0.719,-9.942,0.00043,-0.000542,-0.000511
667,1711305167.9270346,3.922579288482666,6.65,0.529,-4.555,0.3188,0.0733,-0.1134,0.117,0.862,-10.093,0.000799,6.2e-05,0.000112
668,1711305167.9526017,3.948146343231201,6.652,0.529,-4.554,0.3169,0.0714,-0.1113,0.111,0.789,-9.952,-0.000192,-0.000395,0.000422
669,1711305167.977364,3.9729087352752686,6.652,0.529,-4.555,0.3142,0.0734,-0.1126,0.079,0.771,-10.002,-0.001525,-0.000858,-0.000873
670,1711305168.0023444,3.9978890419006348,6.651,0.53,-4.556,0.316,0.0714,-0.1125,0.093,0.82,-10.065,-2.8e-05,0.000347,0.00241
671,1711305168.0269642,4.022508859634399,6.653,0.53,-4.554,0.3179,0.0723,-0.1124,0.1,0.849,-9.922,0.000931,-0.000475,9.7e-05
672,1711305168.0523746,4.047919273376465,6.652,0.53,-4.554,0.3151,0.0734,-0.1093,0.112,0.747,-9.972,-0.000989,-0.00084,0.000338
673,1711305168.077373,4.072917699813843,6.652,0.529,-4.556,0.3206,0.0723,-0.1133,0.101,0.85,-10.068,6.3e-05,0.000569,0.000573
674,1711305168.1022043,4.0977489948272705,6.654,0.53,-4.556,0.3188,0.0713,-0.1101,0.084,0.81,-9.905,-0.000735,0.000254,-0.000798
675,1711305168.1270466,4.122591257095337,6.656,0.53,-4.558,0.3169,0.0694,-0.1113,0.092,0.778,-9.965,-0.00177,-0.000774,0.001114
676,1711305168.1519227,4.147467374801636,6.656,0.53,-4.559,0.3197,0.0693,-0.1111,0.094,0.786,-10.053,0.000415,-0.000439,0.00199
677,1711305168.1768994,4.172444105148315,6.659,0.53,-4.559,0.3178,0.0713,-0.1157,0.088,0.88,-9.933,0.00047,-9.8e-05,-0.000196
678,1711305168.2070756,4.202620267868042,6.663,0.532,-4.558,0.3178,0.0703,-0.1113,0.097,0.718,-9.948,-0.001304,0.000921,0.00016
679,1711305168.2270072,4.2225518226623535,6.665,0.531,-4.56,0.3169,0.0684,-0.1113,0.085,0.872,-10.066,-1.9e-05,-0.000852,0.000502
680,1711305168.2519598,4.247504472732544,6.666,0.53,-4.56,0.3178,0.0723,-0.1113,0.059,0.863,-9.911,6.9e-05,0.000361,-0.000692
681,1711305168.2766976,4.272242307662964,6.666,0.53,-4.56,0.316,0.0714,-0.1147,0.079,0.794,-9.962,-0.000702,0.000274,-0.000319
682,1711305168.3017688,4.297313451766968,6.666,0.529,-4.562,0.3169,0.0694,-0.1102,0.101,0.804,-10.079,0.001413,-0.000104,0.001027
683,1711305168.3266761,4.322220802307129,6.669,0.53,-4.561,0.3159,0.0694,-0.1092,0.097,0.88,-9.91,0.001462,0.000253,-0.000571
684,1711305168.3525062,4.348050832748413,6.669,0.53,-4.558,0.3169,0.0694,-0.1146,0.099,0.72,-9.984,-0.000217,-0.000343,-0.001727
685,1711305168.3770072,4.372551918029785,6.67,0.53,-4.559,0.3197,0.0703,-0.1101,0.122,0.865,-10.046,0.001257,0.000241,-1.9e-05
686,1711305168.402674,4.398218631744385,6.669,0.531,-4.558,0.3178,0.0723,-0.1113,0.084,0.85,-9.901,0.000112,0.001043,0.000164
687,1711305168.426958,4.422502756118774,6.668,0.53,-4.559,0.317,0.0783,-0.1114,0.093,0.772,-9.961,-0.00132,-9.9e-05,-0.000527
688,1711305168.4526873,4.448231935501099,6.669,0.53,-4.56,0.3188,0.0733,-0.1123,0.098,0.76,-10.052,0.001055,-0.000252,0.001004
689,1711305168.477496,4.473040580749512,6.669,0.53,-4.559,0.3188,0.0773,-0.1091,0.084,0.877,-9.885,0.001391,-0.000375,-0.001114
690,1711305168.502763,4.498307704925537,6.67,0.53,-4.558,0.3161,0.0813,-0.1126,0.102,0.687,-9.988,-0.001051,0.000195,6.8e-05
691,1711305168.527264,4.522808790206909,6.669,0.53,-4.559,0.3178,0.0703,-0.1135,0.1,0.821,-10.075,0.001454,-0.000545,0.00062
692,1711305168.552503,4.548047780990601,6.669,0.529,-4.558,0.3142,0.0774,-0.1094,0.075,0.9,-9.884,-0.001041,-0.001139,-0.000202
693,1711305168.577252,4.572796583175659,6.67,0.529,-4.559,0.3187,0.0683,-0.1156,0.107,0.738,-9.967,-0.000451,-0.000285,-0.000203
694,1711305168.6022027,4.597747325897217,6.673,0.528,-4.559,0.3188,0.0713,-0.1101,0.101,0.788,-10.016,0.000483,-0.000804,0.001638
695,1711305168.6271887,4.6227333545684814,6.675,0.528,-4.559,0.3188,0.0743,-0.1102,0.072,0.902,-9.92,0.000187,-0.000488,-0.000181
696,1711305168.6522505,4.6477952003479,6.675,0.528,-4.556,0.3159,0.0664,-0.1092,0.078,0.712,-9.971,-0.000698,0.0003,0.000561
697,1711305168.677421,4.67296576499939,6.677,0.526,-4.559,0.3188,0.0713,-0.1112,0.108,0.866,-10.096,0.001009,-0.001114,0.000825
698,1711305168.7023673,4.697911977767944,6.678,0.527,-4.558,0.3188,0.0753,-0.1113,0.083,0.841,-9.882,0.000894,-0.000862,-0.000419
699,1711305168.7271404,4.722685098648071,6.679,0.527,-4.558,0.317,0.0743,-0.1147,0.103,0.753,-9.984,-0.001878,0.00062,-0.001779
700,1711305168.7521634,4.747708082199097,6.678,0.527,-4.56,0.3169,0.0704,-0.1091,0.118,0.801,-10.048,0.000959,-0.000424,0.000713
701,1711305168.7772782,4.772822856903076,6.677,0.526,-4.559,0.316,0.0753,-0.1136,0.068,0.871,-9.874,0.000593,-0.000755,-0.000307
702,1711305168.8031604,4.798705101013184,6.676,0.525,-4.557,0.3169,0.0733,-0.1125,0.077,0.724,-9.999,-0.00146,-0.000951,-0.001005
703,1711305168.8272872,4.822831869125366,6.678,0.525,-4.559,0.3179,0.0753,-0.1102,0.09,0.825,-10.043,0.001788,0.001092,0.001432
704,1711305168.8520184,4.847563028335571,6.678,0.525,-4.558,0.3179,0.0753,-0.1113,0.046,0.871,-9.917,-0.000864,-0.000488,0.00027
705,1711305168.8772058,4.872750520706177,6.674,0.525,-4.558,0.3171,0.0832,-0.1115,0.085,0.756,-10.024,-0.001166,-0.000436,0.000645
706,1711305168.902249,4.897793769836426,6.675,0.524,-4.561,0.3188,0.0723,-0.1112,0.101,0.763,-10.001,-0.000448,0.00059,0.00064
707,1711305168.9269214,4.922466039657593,6.677,0.525,-4.56,0.3169,0.0714,-0.1091,0.069,0.91,-9.901,0.000466,-9.1e-05,0.00112
708,1711305168.9522643,4.9478089809417725,6.679,0.525,-4.559,0.317,0.0753,-0.1114,0.065,0.683,-9.99,-0.001515,-0.000304,0.000945
709,1711305168.9770985,4.972643136978149,6.677,0.524,-4.56,0.3169,0.0684,-0.1157,0.088,0.85,-10.038,0.001369,-0.000112,0.000582
710,1711305169.002177,4.9977216720581055,6.679,0.524,-4.559,0.316,0.0704,-0.1169,0.087,0.865,-9.897,-0.000366,-0.001406,-0.00157
711,1711305169.0268137,5.022358417510986,6.681,0.524,-4.558,0.316,0.0753,-0.1104,0.076,0.709,-9.97,-0.000703,-0.001199,0.000254
712,1711305169.0518224,5.047367095947266,6.682,0.523,-4.559,0.3197,0.0703,-0.1101,0.099,0.824,-10.034,0.000401,-0.000226,0.000672
713,1711305169.0771518,5.0726964473724365,6.681,0.524,-4.559,0.3188,0.0753,-0.1091,0.087,0.89,-9.891,0.000479,-0.000507,0.000872
714,1711305169.1018016,5.097346305847168,6.682,0.524,-4.557,0.3179,0.0773,-0.1103,0.078,0.682,-10.005,-0.000442,0.000412,0.000725
715,1711305169.1269035,5.122448205947876,6.68,0.524,-4.558,0.3169,0.0723,-0.1103,0.114,0.843,-10.057,0.000558,0.000223,0.001937
716,1711305169.1530294,5.148574113845825,6.683,0.524,-4.558,0.3179,0.0773,-0.1103,0.086,0.848,-9.921,-0.000386,-0.001517,3e-06
717,1711305169.1770232,5.172567844390869,6.68,0.523,-4.558,0.3169,0.0714,-0.1157,0.1,0.786,-10.017,-0.001776,0.000303,1e-05
718,1711305169.2035096,5.19905424118042,6.678,0.523,-4.559,0.3197,0.0703,-0.1144,0.105,0.752,-10.021,0.001211,0.000557,0.000218
719,1711305169.2268353,5.222379922866821,6.68,0.522,-4.559,0.3188,0.0743,-0.1145,0.084,0.921,-9.875,-0.00042,-0.001147,0.000495
720,1711305169.2523699,5.247914552688599,6.679,0.523,-4.558,0.317,0.0733,-0.1179,0.109,0.719,-9.992,-0.001199,-0.000545,-0.001411
721,1711305169.2769575,5.272502183914185,6.679,0.523,-4.559,0.3206,0.0703,-0.1144,0.077,0.806,-10.029,0.000455,0.000349,0.001062
722,1711305169.3027003,5.298244953155518,6.678,0.523,-4.556,0.317,0.0753,-0.1169,0.091,0.883,-9.927,6.6e-05,-6.8e-05,-0.000965
723,1711305169.327332,5.322876691818237,6.679,0.524,-4.558,0.3187,0.0693,-0.1123,0.082,0.716,-9.987,-0.000932,-0.000408,-8.4e-05
724,1711305169.3523502,5.347894906997681,6.679,0.524,-4.559,0.3178,0.0703,-0.1146,0.088,0.784,-10.072,0.001396,-0.000474,-0.000265
725,1711305169.3775644,5.3731091022491455,6.679,0.525,-4.559,0.316,0.0734,-0.1158,0.101,0.891,-9.949,-0.000516,0.000902,-0.000498
726,1711305169.402657,5.3982017040252686,6.676,0.525,-4.557,0.3151,0.0734,-0.1159,0.081,0.698,-9.972,-0.001496,-0.000289,0.000389
727,1711305169.4275837,5.423128366470337,6.677,0.524,-4.559,0.3169,0.0684,-0.1124,0.094,0.853,-10.066,0.001966,-0.001032,0.00133
728,1711305169.4522583,5.447803020477295,6.675,0.525,-4.558,0.3188,0.0763,-0.1124,0.103,0.83,-9.893,-0.000299,-0.000614,-0.001675
729,1711305169.477193,5.472737789154053,6.675,0.524,-4.559,0.3179,0.0723,-0.1146,0.094,0.754,-9.995,-0.001932,-0.000706,0.000731
730,1711305169.5024905,5.498035192489624,6.674,0.524,-4.559,0.3179,0.0743,-0.1146,0.114,0.777,-10.053,0.001725,-0.000373,0.001078
731,1711305169.527263,5.522807598114014,6.673,0.525,-4.558,0.3188,0.0713,-0.1167,0.082,0.848,-9.89,-0.000156,0.00058,-0.000385
732,1711305169.5521271,5.547671794891357,6.672,0.525,-4.557,0.3159,0.0684,-0.1136,0.067,0.69,-9.983,-0.001605,0.000306,-0.00061
733,1711305169.577293,5.572837591171265,6.671,0.524,-4.558,0.317,0.0743,-0.1125,0.095,0.82,-10.093,0.000849,-0.000301,7.5e-05
734,1711305169.60244,5.597984790802002,6.67,0.525,-4.556,0.3188,0.0713,-0.1112,0.09,0.871,-9.907,-0.000333,-0.000364,-0.000699
735,1711305169.6270583,5.622602939605713,6.671,0.525,-4.557,0.3169,0.0733,-0.1147,0.081,0.755,-9.97,-0.000801,0.000364,0.000151
736,1711305169.6523352,5.6478798389434814,6.671,0.525,-4.558,0.3161,0.0773,-0.1137,0.096,0.772,-10.049,0.001084,-0.001041,0.000603
737,1711305169.6770267,5.672571420669556,6.67,0.525,-4.555,0.3179,0.0723,-0.1135,0.099,0.909,-9.945,0.000344,8.5e-05,0.000484
738,1711305169.70235,5.69789457321167,6.668,0.526,-4.554,0.316,0.0724,-0.118,0.128,0.717,-9.942,-0.001032,0.000349,-0.001145
739,1711305169.7271936,5.722738265991211,6.665,0.525,-4.555,0.3188,0.0763,-0.1157,0.09,0.866,-10.081,0.002056,-0.000825,0.000411
740,1711305169.7523313,5.747875928878784,6.66,0.526,-4.554,0.317,0.0763,-0.118,0.09,0.848,-9.954,0.000232,-0.000245,-0.000298
741,1711305169.7772226,5.7727673053741455,6.658,0.526,-4.554,0.3169,0.0723,-0.1146,0.083,0.75,-9.983,0.00101,0.000223,7.6e-05
742,1711305169.801996,5.797540664672852,6.659,0.526,-4.556,0.3188,0.0713,-0.12,0.131,0.818,-10.071,0.001629,0.001364,-2.1e-05
743,1711305169.82681,5.822354555130005,6.66,0.527,-4.555,0.3161,0.0763,-0.1191,0.095,0.862,-9.971,-0.000753,0.000207,0.000575
744,1711305169.8526015,5.848146200180054,6.661,0.527,-4.554,0.316,0.0694,-0.1191,0.067,0.698,-9.961,-0.000451,0.000362,0.00052
745,1711305169.8771305,5.872675180435181,6.662,0.527,-4.556,0.316,0.0714,-0.1147,0.103,0.877,-10.054,0.001691,-0.000897,0.001869
746,1711305169.9020996,5.897644281387329,6.661,0.527,-4.555,0.316,0.0734,-0.1169,0.064,0.797,-9.958,-0.001237,-0.000132,-0.001726
747,1711305169.9268157,5.922360420227051,6.66,0.527,-4.555,0.316,0.0714,-0.118,0.081,0.733,-9.992,-0.000555,6e-05,0.000336
748,1711305169.9521646,5.947709321975708,6.661,0.527,-4.557,0.316,0.0714,-0.1158,0.114,0.787,-10.058,0.000342,0.000141,0.000559
749,1711305169.9770272,5.972571849822998,6.663,0.528,-4.556,0.3187,0.0693,-0.1167,0.076,0.854,-9.952,-0.00197,-3.8e-05,-0.001405
750,1711305170.0024116,5.997956275939941,6.667,0.528,-4.556,0.316,0.0694,-0.1191,0.072,0.71,-9.987,-0.00166,0.000269,0.00171
751,1711305170.0271316,6.022676229476929,6.669,0.528,-4.557,0.3188,0.0733,-0.12,0.112,0.82,-10.03,0.001557,0.000408,0.000819
752,1711305170.0527172,6.048261880874634,6.668,0.528,-4.557,0.3188,0.0753,-0.1179,0.097,0.873,-9.99,-0.001183,0.000664,0.000422
753,1711305170.0767684,6.072313070297241,6.666,0.529,-4.557,0.316,0.0684,-0.119,0.113,0.732,-9.988,-0.000886,0.000526,-0.000223
754,1711305170.1026728,6.098217487335205,6.668,0.529,-4.558,0.3169,0.0684,-0.1146,0.092,0.823,-10.034,0.000678,7.5e-05,0.002173
755,1711305170.1268556,6.122400283813477,6.668,0.528,-4.558,0.3152,0.0803,-0.1138,0.097,0.893,-9.992,0.000191,-0.000705,-0.000805
756,1711305170.1526816,6.148226261138916,6.668,0.529,-4.557,0.317,0.0743,-0.1147,0.077,0.714,-9.956,-0.000689,-0.00049,0.00052
757,1711305170.1765912,6.172135829925537,6.668,0.528,-4.559,0.317,0.0733,-0.1169,0.101,0.866,-10.099,0.00041,-0.001162,0.000791
758,1711305170.2029874,6.1985321044921875,6.669,0.529,-4.558,0.315,0.0675,-0.1246,0.097,0.796,-9.948,-0.000902,-0.00053,0.000518
759,1711305170.227698,6.22324275970459,6.67,0.528,-4.558,0.3197,0.0733,-0.1189,0.079,0.756,-9.994,-0.000718,0.000761,-0.000391
760,1711305170.2526133,6.248157978057861,6.67,0.528,-4.56,0.315,0.0694,-0.1191,0.13,0.845,-10.036,0.000571,0.000206,0.000697
761,1711305170.277521,6.273065567016602,6.671,0.529,-4.558,0.3169,0.0714,-0.1223,0.082,0.827,-10.009,0.000539,-0.000263,-0.000454
762,1711305170.3027,6.2982447147369385,6.674,0.527,-4.558,0.3169,0.0714,-0.1168,0.112,0.745,-9.99,0.000725,-0.000412,-0.000156
763,1711305170.3272002,6.322744846343994,6.673,0.527,-4.559,0.3178,0.0694,-0.1189,0.109,0.852,-10.067,0.001974,-0.000933,0.000361
764,1711305170.352496,6.348040580749512,6.675,0.527,-4.557,0.3188,0.0753,-0.1189,0.103,0.807,-9.967,-0.000272,-0.001001,-0.001295
765,1711305170.3771842,6.3727288246154785,6.675,0.527,-4.558,0.3169,0.0704,-0.1212,0.084,0.774,-9.981,0.000648,-0.000149,-0.000386
766,1711305170.4023113,6.397855997085571,6.679,0.526,-4.559,0.3188,0.0703,-0.1145,0.11,0.804,-10.076,0.001299,-8.2e-05,-0.00078
767,1711305170.4272149,6.422759532928467,6.677,0.527,-4.558,0.3169,0.0714,-0.1201,0.091,0.847,-10.017,-0.000422,0.000544,0.000124
768,1711305170.4525251,6.44806981086731,6.679,0.527,-4.558,0.3189,0.0773,-0.1146,0.072,0.694,-9.988,-0.000209,-2.4e-05,0.000769
769,1711305170.4775138,6.473058462142944,6.678,0.526,-4.558,0.3169,0.0694,-0.1179,0.107,0.9,-10.074,0.001265,-0.000155,0.000255
770,1711305170.5022295,6.497774124145508,6.676,0.527,-4.558,0.3178,0.0703,-0.1179,0.095,0.851,-10.002,-0.001522,0.000526,-0.000781
771,1711305170.5272613,6.52280592918396,6.677,0.528,-4.56,0.3159,0.0674,-0.1146,0.095,0.724,-9.977,-0.002155,0.000925,0.001529
772,1711305170.5523436,6.547888278961182,6.678,0.528,-4.562,0.3188,0.0733,-0.1189,0.109,0.824,-10.067,-0.001004,-1.2e-05,0.001481
773,1711305170.5772622,6.5728068351745605,6.678,0.528,-4.561,0.3178,0.0694,-0.1222,0.097,0.83,-9.94,-0.000872,-0.000857,-0.00126
774,1711305170.602306,6.597850561141968,6.68,0.528,-4.559,0.3169,0.0714,-0.119,0.075,0.721,-9.989,0.001047,0.000159,0.000719
775,1711305170.62706,6.622604608535767,6.679,0.528,-4.56,0.317,0.0733,-0.1169,0.098,0.858,-10.078,0.001396,0.000483,0.000914
776,1711305170.6523843,6.647928953170776,6.679,0.529,-4.558,0.3179,0.0783,-0.1147,0.086,0.814,-9.902,0.00041,0.000437,-0.000479
777,1711305170.6771886,6.672733306884766,6.681,0.529,-4.558,0.3188,0.0723,-0.1167,0.058,0.747,-10.022,-0.000654,0.000761,-0.000578
778,1711305170.702227,6.697771787643433,6.681,0.529,-4.559,0.317,0.0763,-0.118,0.121,0.805,-10.036,0.00137,-0.000893,9e-05
779,1711305170.7268767,6.722421407699585,6.678,0.53,-4.558,0.3188,0.0713,-0.1156,0.079,0.873,-9.915,0.000425,-0.000394,0.000127
780,1711305170.7524374,6.747982025146484,6.681,0.53,-4.557,0.3187,0.0683,-0.1211,0.103,0.739,-9.983,0.000272,-0.000297,0.000247
781,1711305170.7770617,6.772606372833252,6.681,0.529,-4.557,0.317,0.0793,-0.1158,0.121,0.841,-10.049,0.001083,0.000475,-0.000171
782,1711305170.8021104,6.79765510559082,6.68,0.529,-4.555,0.3179,0.0723,-0.1168,0.094,0.837,-9.937,0.001089,0.000397,-2.4e-05
783,1711305170.827113,6.822657585144043,6.68,0.53,-4.555,0.3179,0.0723,-0.1168,0.12,0.752,-10.009,-0.000532,-0.000726,0.001073
784,1711305170.8517175,6.847262144088745,6.679,0.528,-4.556,0.316,0.0734,-0.118,0.096,0.777,-10.07,0.00091,-0.000287,-0.000547
785,1711305170.8768237,6.872368335723877,6.678,0.529,-4.554,0.3161,0.0763,-0.118,0.096,0.9,-9.917,0.000339,0.000477,-7e-05
786,1711305170.9020824,6.897627115249634,6.681,0.529,-4.553,0.3169,0.0723,-0.1135,0.086,0.692,-9.95,9.6e-05,-0.000339,-0.000238
787,1711305170.9268312,6.922375917434692,6.68,0.528,-4.555,0.3179,0.0733,-0.1146,0.097,0.832,-10.066,0.000459,0.000854,-0.000582
788,1711305170.9520793,6.94762396812439,6.679,0.529,-4.553,0.3179,0.0713,-0.1201,0.079,0.834,-9.902,-0.001062,0.000287,0.000604
789,1711305170.9770627,6.972607374191284,6.677,0.529,-4.553,0.316,0.0734,-0.118,0.105,0.773,-10.024,-0.00065,-0.000689,1.5e-05
790,1711305171.0027714,6.998316049575806,6.678,0.529,-4.555,0.3197,0.0733,-0.1145,0.103,0.795,-10.008,0.000948,5e-05,0.000795
791,1711305171.0269415,7.022486209869385,6.676,0.529,-4.554,0.3178,0.0694,-0.1167,0.082,0.855,-9.898,0.000282,-0.000336,-0.000856
792,1711305171.0524192,7.047963857650757,6.676,0.529,-4.553,0.3169,0.0694,-0.1223,0.122,0.757,-10.012,-0.001274,-0.001262,-0.000294
793,1711305171.0765567,7.072101354598999,6.677,0.53,-4.554,0.316,0.0744,-0.1191,0.063,0.793,-10.066,0.001796,0.001207,0.001871
794,1711305171.1026607,7.098205327987671,6.676,0.528,-4.553,0.3161,0.0773,-0.1191,0.072,0.839,-9.906,0.000586,-0.000975,-0.000395
795,1711305171.1272893,7.122833967208862,6.673,0.528,-4.553,0.316,0.0694,-0.1191,0.109,0.809,-9.969,-0.000334,-0.000432,-0.000565
796,1711305171.1525896,7.148134231567383,6.675,0.528,-4.555,0.3169,0.0684,-0.1179,0.08,0.701,-10.023,-0.000616,-0.00071,0.001706
797,1711305171.1775684,7.173113107681274,6.675,0.528,-4.554,0.317,0.0743,-0.1147,0.083,0.926,-9.955,0.001524,0.000955,0.000925
798,1711305171.202896,7.198440790176392,6.675,0.529,-4.552,0.316,0.0714,-0.1191,0.102,0.762,-9.944,-0.000329,0.000122,-0.000645
799,1711305171.2275279,7.223072528839111,6.675,0.529,-4.551,0.316,0.0694,-0.1213,0.064,0.767,-10.077,0.001253,0.000594,0.000604
800,1711305171.2525434,7.248088121414185,6.676,0.529,-4.551,0.316,0.0704,-0.1224,0.098,0.838,-9.937,0.000417,-0.000393,0.000336
801,1711305171.277393,7.272937774658203,6.677,0.53,-4.551,0.3161,0.0783,-0.1159,0.124,0.784,-10.022,-0.001123,-0.000176,-0.000599
802,1711305171.3022711,7.297815799713135,6.674,0.53,-4.552,0.3169,0.0704,-0.1179,0.089,0.712,-10.069,-0.000311,0.000995,0.001071
803,1711305171.3272014,7.32274603843689,6.674,0.531,-4.552,0.3197,0.0743,-0.12,0.091,0.866,-9.992,0.002163,-0.000254,-0.000363
804,1711305171.3522,7.347744703292847,6.672,0.531,-4.55,0.3151,0.0734,-0.1225,0.111,0.814,-9.949,-0.000575,0.000403,-2e-06
805,1711305171.377023,7.372567653656006,6.671,0.531,-4.553,0.3179,0.0713,-0.1234,0.085,0.713,-10.037,-0.000396,0.000128,0.000326
806,1711305171.4023995,7.397944211959839,6.672,0.531,-4.553,0.3188,0.0703,-0.1167,0.11,0.849,-9.934,-0.000372,0.000224,-0.000185
807,1711305171.4273357,7.422880411148071,6.669,0.531,-4.554,0.3189,0.0773,-0.1179,0.099,0.855,-9.938,-0.000233,0.00047,0.000176
808,1711305171.4523578,7.44790244102478,6.671,0.531,-4.555,0.3178,0.0703,-0.1179,0.055,0.692,-9.995,-0.000968,0.000219,0.000843
809,1711305171.477267,7.472811698913574,6.67,0.531,-4.555,0.3179,0.0743,-0.1201,0.081,0.889,-10.038,0.001805,0.000741,0.000964
810,1711305171.503355,7.498899698257446,6.672,0.53,-4.555,0.3151,0.0714,-0.1202,0.086,0.827,-9.932,-0.001004,-0.00062,0.000779
811,1711305171.5273464,7.522891044616699,6.675,0.53,-4.555,0.3206,0.0703,-0.1166,0.059,0.732,-10.028,0.001034,0.000198,-0.000388
812,1711305171.5524387,7.547983407974243,6.675,0.53,-4.556,0.3188,0.0713,-0.1178,0.117,0.862,-10.049,0.000348,0.000911,0.00164
813,1711305171.5772665,7.572811126708984,6.677,0.531,-4.554,0.3197,0.0703,-0.121,0.067,0.818,-9.904,-0.000262,6.1e-05,0.000361
814,1711305171.6020477,7.597592353820801,6.678,0.531,-4.554,0.317,0.0733,-0.1201,0.108,0.739,-10.042,-0.001265,0.000751,0.00149
815,1711305171.6293793,7.624923944473267,6.679,0.532,-4.554,0.3188,0.0713,-0.1244,0.109,0.84,-10.059,0.001306,8.6e-05,-0.000354
816,1711305171.652239,7.6477837562561035,6.679,0.532,-4.552,0.315,0.0684,-0.1246,0.067,0.868,-9.893,0.000763,-5.7e-05,-0.000867
817,1711305171.6771348,7.672679424285889,6.682,0.532,-4.552,0.3179,0.0763,-0.119,0.127,0.728,-10.039,-3.1e-05,0.000177,0.000964
818,1711305171.7018943,7.697438955307007,6.682,0.532,-4.551,0.317,0.0743,-0.118,0.083,0.835,-10.024,-0.000263,-0.00014,4.1e-05
819,1711305171.726888,7.722432613372803,6.681,0.532,-4.553,0.3187,0.0693,-0.12,0.104,0.865,-9.901,-0.000384,-0.000664,7.3e-05
820,1711305171.7521453,7.747689962387085,6.685,0.532,-4.553,0.316,0.0714,-0.1246,0.079,0.741,-10.018,-0.001644,0.000303,-8.9e-05
821,1711305171.7770717,7.772616386413574,6.687,0.532,-4.553,0.3179,0.0713,-0.1212,0.109,0.793,-10.039,0.001494,0.000646,0.000733
822,1711305171.8021274,7.7976720333099365,6.687,0.533,-4.552,0.3188,0.0733,-0.1178,0.077,0.892,-9.898,-0.000414,0.000775,-0.000748
823,1711305171.82711,7.822654724121094,6.686,0.533,-4.551,0.3169,0.0714,-0.119,0.082,0.707,-9.978,-0.000897,0.000533,-0.00165
824,1711305171.8555834,7.851128101348877,6.688,0.534,-4.552,0.316,0.0714,-0.1235,0.086,0.781,-10.077,0.000454,0.000148,-0.00098
825,1711305171.8765469,7.87209153175354,6.687,0.534,-4.552,0.3179,0.0713,-0.1234,0.093,0.867,-9.941,0.001255,-0.000669,-1.1e-05
826,1711305171.901915,7.8974597454071045,6.688,0.535,-4.55,0.318,0.0793,-0.1223,0.095,0.792,-10.035,-0.000559,0.000658,-0.000617
827,1711305171.9268131,7.922357797622681,6.687,0.534,-4.551,0.3188,0.0703,-0.1156,0.078,0.735,-10.037,0.001199,-0.000962,0.000681
828,1711305171.951862,7.947406768798828,6.687,0.535,-4.55,0.316,0.0744,-0.118,0.084,0.865,-9.925,-0.000395,-0.001029,-0.001654
829,1711305171.9769394,7.972484111785889,6.688,0.535,-4.549,0.317,0.0763,-0.1202,0.112,0.772,-10.002,-0.000902,-0.000328,-0.00013
830,1711305172.0026767,7.998221397399902,6.688,0.535,-4.548,0.317,0.0733,-0.1201,0.114,0.703,-10.015,0.001774,-0.000692,0.000483
831,1711305172.0268748,8.022419452667236,6.687,0.533,-4.546,0.3179,0.0753,-0.119,0.099,0.88,-9.948,0.001822,-0.000406,-0.000394
832,1711305172.0531223,8.048666954040527,6.688,0.534,-4.544,0.3169,0.0714,-0.1201,0.116,0.743,-10.017,-0.001032,-0.000575,7.7e-05
833,1711305172.0773077,8.072852373123169,6.688,0.534,-4.543,0.3198,0.0772,-0.1211,0.091,0.738,-9.999,0.000507,0.000121,0.000628
834,1711305172.102311,8.097855567932129,6.686,0.534,-4.544,0.3179,0.0773,-0.1157,0.088,0.924,-9.986,0.001452,-0.00092,0.000521
835,1711305172.1273403,8.12288498878479,6.686,0.534,-4.544,0.3179,0.0733,-0.1245,0.105,0.751,-9.982,-0.001522,0.000494,0.000172
836,1711305172.1523423,8.147886991500854,6.684,0.534,-4.545,0.317,0.0724,-0.1245,0.053,0.745,-10.024,-0.000407,-0.000547,0.00093
837,1711305172.177691,8.173235654830933,6.686,0.533,-4.547,0.3188,0.0723,-0.12,0.08,0.853,-9.971,0.00035,0.000433,0.001813
838,1711305172.202659,8.198203563690186,6.687,0.533,-4.548,0.3197,0.0693,-0.1199,0.094,0.788,-9.974,-0.003312,-0.001057,-0.00145
839,1711305172.2275681,8.22311282157898,6.688,0.533,-4.548,0.3188,0.0743,-0.1167,0.102,0.7,-9.999,-2.2e-05,6e-05,0.000283
840,1711305172.2522538,8.247798442840576,6.687,0.533,-4.55,0.3178,0.0694,-0.12,0.083,0.851,-10.006,-0.000541,-0.002222,0.001085
841,1711305172.2771852,8.272729873657227,6.687,0.532,-4.55,0.3207,0.0762,-0.1232,0.084,0.796,-9.993,-0.001399,-6.2e-05,0.000488
842,1711305172.302558,8.298102617263794,6.686,0.533,-4.551,0.317,0.0733,-0.1223,0.087,0.743,-10.013,0.000194,0.000842,-0.000652
843,1711305172.3274505,8.32299518585205,6.686,0.533,-4.553,0.317,0.0753,-0.1191,0.099,0.856,-10.027,0.000498,2.6e-05,0.001706
844,1711305172.3523917,8.347936391830444,6.684,0.532,-4.553,0.316,0.0694,-0.1213,0.095,0.833,-9.971,-0.001269,-0.000996,-0.000252
845,1711305172.3773472,8.372891902923584,6.683,0.532,-4.551,0.3179,0.0713,-0.1223,0.078,0.707,-10.001,0.001788,-3.7e-05,0.000633
846,1711305172.4023995,8.397944211959839,6.683,0.531,-4.551,0.3179,0.0753,-0.1223,0.12,0.885,-10.066,0.001399,0.000474,-9.4e-05
847,1711305172.427291,8.4228355884552,6.683,0.532,-4.55,0.3179,0.0733,-0.1201,0.12,0.688,-10.048,0.000911,-0.0005,-0.00055
848,1711305172.452224,8.447768688201904,6.682,0.532,-4.55,0.3179,0.0733,-0.1223,0.068,0.8,-10.027,0.000448,-0.000601,-0.000735
849,1711305172.4772675,8.472812175750732,6.683,0.531,-4.552,0.3169,0.0694,-0.1267,0.137,0.927,-10.058,-0.000348,-0.000364,0.001829
850,1711305172.5021913,8.497735977172852,6.685,0.531,-4.552,0.3169,0.0714,-0.119,0.076,0.848,-9.971,-0.00011,0.000376,0.001312
851,1711305172.5271368,8.522681474685669,6.679,0.531,-4.551,0.3188,0.0743,-0.12,0.078,0.711,-9.99,0.000919,0.00109,0.000638
852,1711305172.5523267,8.547871351242065,6.68,0.532,-4.551,0.316,0.0724,-0.118,0.14,0.859,-10.068,0.002942,0.000333,0.000507
853,1711305172.577223,8.572767734527588,6.678,0.531,-4.549,0.317,0.0743,-0.118,0.118,0.816,-9.906,-0.000263,-0.000481,-0.00122
854,1711305172.602304,8.597848653793335,6.679,0.531,-4.548,0.317,0.0783,-0.1213,0.083,0.775,-9.97,-0.000285,6.5e-05,-0.000119
855,1711305172.626844,8.6223886013031,6.676,0.531,-4.549,0.3188,0.0713,-0.1178,0.1,0.821,-10.021,0.000448,-0.000209,0.000514
856,1711305172.6517627,8.647307395935059,6.678,0.531,-4.55,0.317,0.0783,-0.1224,0.083,0.99,-10.009,-0.001509,0.000196,7.8e-05
857,1711305172.6767058,8.672250509262085,6.678,0.531,-4.548,0.3179,0.0713,-0.1234,0.089,0.542,-9.963,0.000829,-4.2e-05,-0.000909
858,1711305172.7018383,8.697382926940918,6.678,0.531,-4.548,0.3179,0.0753,-0.1179,0.079,0.923,-10.069,-0.000119,0.000306,0.001899
859,1711305172.7270377,8.722582340240479,6.675,0.531,-4.547,0.3189,0.0763,-0.1212,0.052,0.852,-9.91,0.001307,-0.000252,0.000975
860,1711305172.7521818,8.747726440429688,6.673,0.531,-4.547,0.3169,0.0704,-0.119,0.084,0.742,-10.015,0.000105,0.00074,-0.000279
861,1711305172.7772982,8.77284288406372,6.675,0.531,-4.548,0.3179,0.0723,-0.1201,0.079,0.842,-10.065,-0.001179,-0.001008,-0.000555
862,1711305172.8031518,8.798696517944336,6.676,0.532,-4.549,0.3188,0.0753,-0.1233,0.086,0.84,-9.887,0.000713,0.001145,-0.000139
863,1711305172.8267887,8.822333335876465,6.676,0.532,-4.547,0.316,0.0704,-0.1235,0.102,0.715,-9.973,-0.001115,-0.000638,-0.001388
864,1711305172.8520598,8.847604513168335,6.675,0.531,-4.548,0.3169,0.0694,-0.1245,0.086,0.829,-10.043,8.4e-05,-0.000556,0.000137
865,1711305172.876978,8.872522592544556,6.676,0.531,-4.548,0.3197,0.0713,-0.1167,0.075,0.911,-9.937,-0.00019,-0.001242,-0.000248
866,1711305172.9019063,8.897450923919678,6.676,0.53,-4.549,0.3178,0.0704,-0.1222,0.13,0.806,-9.976,-0.001831,-0.000689,3e-05
867,1711305172.9267108,8.922255516052246,6.679,0.53,-4.548,0.3179,0.0743,-0.1201,0.064,0.743,-10.031,0.000373,-0.000711,0.001593
868,1711305172.9526796,8.948224306106567,6.677,0.53,-4.549,0.3188,0.0753,-0.12,0.108,0.884,-9.969,0.002019,-0.000994,-0.000847
869,1711305172.9776042,8.973148822784424,6.678,0.53,-4.548,0.3179,0.0723,-0.1201,0.1,0.698,-9.982,-0.001467,0.001333,0.000372
870,1711305173.0026312,8.998175859451294,6.679,0.529,-4.549,0.316,0.0704,-0.118,0.07,0.805,-10.069,-0.000234,-0.000277,0.000657
871,1711305173.0269887,9.022533416748047,6.68,0.529,-4.549,0.316,0.0714,-0.1191,0.088,0.879,-9.941,0.000126,-0.000195,0.000127
872,1711305173.0526686,9.048213243484497,6.678,0.529,-4.55,0.3188,0.0713,-0.1211,0.089,0.731,-10.009,-0.002308,-0.000714,-0.001254
873,1711305173.0776036,9.073148250579834,6.679,0.529,-4.55,0.3197,0.0713,-0.1177,0.078,0.749,-10.041,-0.000299,0.00115,0.000601
874,1711305173.102284,9.09782862663269,6.681,0.529,-4.55,0.3169,0.0704,-0.1201,0.109,0.856,-9.913,0.00157,-0.00152,0.000204
875,1711305173.127468,9.123012781143188,6.68,0.529,-4.547,0.317,0.0743,-0.1223,0.119,0.731,-9.982,-0.001044,3.5e-05,-0.000335
876,1711305173.1525116,9.148056268692017,6.677,0.528,-4.547,0.3179,0.0773,-0.119,0.066,0.874,-9.997,-0.000294,-0.000532,0.000591
877,1711305173.1772344,9.172779083251953,6.675,0.528,-4.548,0.318,0.0803,-0.1202,0.091,0.787,-9.953,-0.000638,-0.000784,0.000145
878,1711305173.2021646,9.197709321975708,6.675,0.528,-4.547,0.3179,0.0733,-0.1168,0.093,0.812,-10.062,-0.000364,-0.000361,-0.000316
879,1711305173.2273166,9.222861289978027,6.676,0.528,-4.548,0.3159,0.0654,-0.1212,0.081,0.721,-9.953,-0.000664,0.00014,0.000376
880,1711305173.2521403,9.247684955596924,6.679,0.528,-4.547,0.3206,0.0723,-0.1188,0.101,0.874,-9.966,0.002739,-0.000535,0.000883
881,1711305173.2773707,9.272915363311768,6.682,0.528,-4.546,0.3179,0.0743,-0.1212,0.113,0.774,-9.981,-0.000246,-0.000443,0.00104
882,1711305173.3020856,9.297630310058594,6.684,0.528,-4.545,0.3169,0.0684,-0.1168,0.062,0.695,-10.017,0.002073,-0.000137,-0.000194
883,1711305173.327195,9.322739601135254,6.686,0.527,-4.546,0.317,0.0733,-0.1234,0.105,0.883,-10.004,-0.000138,-0.000775,0.001107
884,1711305173.3533907,9.34893536567688,6.687,0.527,-4.546,0.3179,0.0753,-0.119,0.132,0.85,-9.98,-0.001867,0.000313,0.000572
885,1711305173.3773499,9.372894525527954,6.686,0.527,-4.546,0.3188,0.0723,-0.1277,0.065,0.704,-10.033,-0.000294,-0.000473,-0.000402
886,1711305173.4020467,9.397591352462769,6.685,0.527,-4.547,0.3197,0.0703,-0.1177,0.096,0.904,-9.989,0.002763,-0.00092,0.000408
887,1711305173.4272323,9.422776937484741,6.687,0.527,-4.545,0.3169,0.0714,-0.1223,0.098,0.817,-9.929,-8.8e-05,-0.000541,-0.000954
888,1711305173.4520452,9.447589874267578,6.686,0.526,-4.546,0.3179,0.0733,-0.1201,0.086,0.729,-10.034,0.000176,0.000948,0.000141
889,1711305173.4774034,9.47294807434082,6.688,0.526,-4.546,0.3197,0.0693,-0.1232,0.124,0.844,-10.01,0.001787,-0.000813,0.000599
890,1711305173.5019674,9.497512102127075,6.687,0.527,-4.546,0.3169,0.0714,-0.1168,0.101,0.867,-9.963,-0.001018,0.000213,-0.000764
891,1711305173.526944,9.522488594055176,6.687,0.527,-4.547,0.3197,0.0713,-0.1177,0.113,0.72,-10.027,-0.000728,0.000941,0.000908
892,1711305173.551913,9.547457695007324,6.687,0.527,-4.547,0.3178,0.0704,-0.1211,0.108,0.847,-10.006,0.001981,-8.7e-05,0.000692
893,1711305173.5772622,9.57280683517456,6.688,0.528,-4.547,0.3178,0.0684,-0.1211,0.105,0.877,-9.923,-0.001611,-0.000415,-0.000922
894,1711305173.6022308,9.59777545928955,6.689,0.527,-4.548,0.3161,0.0793,-0.1225,0.053,0.705,-9.981,-0.000531,-0.000518,0.000416
895,1711305173.6270096,9.622554302215576,6.687,0.527,-4.547,0.3179,0.0713,-0.1223,0.102,0.851,-10.058,0.000351,-0.001213,2.8e-05
896,1711305173.652057,9.64760160446167,6.689,0.528,-4.548,0.3188,0.0733,-0.1156,0.094,0.886,-9.92,-0.000264,-0.000784,8.5e-05
897,1711305173.6768627,9.672407388687134,6.689,0.527,-4.548,0.3197,0.0733,-0.12,0.069,0.705,-10.034,-0.001617,0.000852,-7.8e-05
898,1711305173.7020755,9.697620153427124,6.689,0.527,-4.549,0.3179,0.0713,-0.1223,0.083,0.871,-10.059,0.000897,0.000417,0.000692
899,1711305173.7268987,9.722443342208862,6.692,0.527,-4.549,0.3197,0.0713,-0.1177,0.069,0.841,-9.919,-0.000601,-0.000208,0.000728
900,1711305173.75211,9.747654676437378,6.693,0.527,-4.548,0.316,0.0704,-0.1213,0.079,0.726,-10.055,-8.8e-05,0.000769,0.000459
901,1711305173.7769272,9.772471904754639,6.694,0.526,-4.548,0.3179,0.0713,-0.1201,0.101,0.826,-10.061,0.001206,0.000882,0.000311
902,1711305173.8016546,9.797199249267578,6.691,0.526,-4.549,0.3188,0.0723,-0.1222,0.081,0.867,-9.877,0.000961,-0.001511,7.3e-05
903,1711305173.8270545,9.822599172592163,6.69,0.525,-4.549,0.3179,0.0723,-0.119,0.115,0.755,-10.059,-0.001855,0.000844,-0.000275
904,1711305173.8529794,9.84852409362793,6.692,0.526,-4.549,0.318,0.0783,-0.1212,0.07,0.752,-10.049,0.001711,0.000569,0.000711
905,1711305173.8776457,9.87319040298462,6.69,0.526,-4.549,0.3178,0.0684,-0.1255,0.075,0.879,-9.892,-0.001204,-0.000299,-0.000345
906,1711305173.9054074,9.900952100753784,6.692,0.526,-4.55,0.317,0.0743,-0.1245,0.101,0.726,-10.021,-0.001081,0.001067,-0.000103
907,1711305173.9264145,9.921959161758423,6.693,0.526,-4.549,0.3197,0.0693,-0.1221,0.071,0.773,-10.059,0.000577,-0.000246,-0.000448
908,1711305173.9526017,9.948146343231201,6.693,0.526,-4.551,0.3179,0.0713,-0.1234,0.086,0.892,-9.89,0.000576,-0.000312,0.002102
909,1711305173.9766266,9.972171306610107,6.692,0.527,-4.551,0.3188,0.0713,-0.1244,0.102,0.692,-10.044,-0.002344,0.001299,-0.000735
910,1711305174.0028315,9.99837613105774,6.692,0.527,-4.551,0.3189,0.0773,-0.1201,0.094,0.8,-10.051,0.001973,0.001496,3.6e-05
911,1711305174.0272455,10.02279019355774,6.689,0.526,-4.551,0.3179,0.0743,-0.1168,0.103,0.882,-9.92,0.001036,-0.000565,-0.000867
912,1711305174.0521889,10.047733545303345,6.688,0.526,-4.549,0.3179,0.0733,-0.1234,0.114,0.68,-10.024,-0.000953,-0.001883,0.001038
913,1711305174.077483,10.073027610778809,6.69,0.526,-4.55,0.316,0.0714,-0.1224,0.082,0.797,-10.071,0.001118,0.000122,-0.000553
914,1711305174.102608,10.09815263748169,6.691,0.526,-4.551,0.318,0.0783,-0.1212,0.087,0.868,-9.877,0.000314,-0.00048,0.000973
915,1711305174.1273735,10.122918128967285,6.689,0.526,-4.551,0.3179,0.0763,-0.1223,0.091,0.759,-10.048,-0.002068,0.00098,-2.3e-05
916,1711305174.1522467,10.147791385650635,6.686,0.525,-4.55,0.317,0.0733,-0.1212,0.089,0.736,-10.046,0.002666,0.00112,-0.000157
917,1711305174.1772547,10.172799348831177,6.686,0.525,-4.549,0.3178,0.0694,-0.1222,0.109,0.879,-9.897,0.000875,-0.000102,0.000433
918,1711305174.2074492,10.202993869781494,6.689,0.526,-4.549,0.317,0.0763,-0.1191,0.089,0.728,-10.037,-0.000419,0.00078,0.001139
919,1711305174.2275252,10.223069906234741,6.689,0.526,-4.548,0.3188,0.0693,-0.1277,0.08,0.751,-10.041,0.001833,0.000507,-0.000812
920,1711305174.2520027,10.247547388076782,6.688,0.526,-4.548,0.3188,0.0743,-0.1233,0.106,0.889,-9.962,-0.000617,-9.7e-05,-0.000651
921,1711305174.2771988,10.272743463516235,6.69,0.526,-4.548,0.3188,0.0723,-0.1255,0.12,0.713,-10.037,-0.001589,-0.001162,-0.000168
922,1711305174.3024044,10.297949075698853,6.688,0.526,-4.547,0.317,0.0783,-0.118,0.066,0.739,-10.013,0.001387,0.000727,0.001101
923,1711305174.3269434,10.322488069534302,6.69,0.526,-4.547,0.3187,0.0693,-0.12,0.095,0.911,-9.918,0.000721,0.000702,0.000464
924,1711305174.3520358,10.347580432891846,6.691,0.527,-4.545,0.3179,0.0763,-0.1201,0.124,0.71,-10.025,-0.001205,-5.8e-05,-0.00032
925,1711305174.3772256,10.372770309448242,6.693,0.527,-4.546,0.3179,0.0713,-0.1201,0.054,0.795,-10.031,-0.000823,-0.000225,0.000788
926,1711305174.4022524,10.397797107696533,6.689,0.527,-4.549,0.3179,0.0763,-0.1201,0.096,0.872,-9.895,-0.001202,-0.000133,-7e-05
927,1711305174.4268813,10.422425985336304,6.689,0.527,-4.55,0.317,0.0783,-0.118,0.16,0.797,-10.08,-0.003132,-0.000505,0.000141
928,1711305174.4519415,10.447486162185669,6.689,0.527,-4.553,0.317,0.0753,-0.1202,0.081,0.721,-10.014,0.001018,-0.000217,0.001954
929,1711305174.4773314,10.472876071929932,6.689,0.527,-4.554,0.3216,0.0752,-0.1232,0.076,0.879,-9.96,0.000616,-0.00066,-0.000408
930,1711305174.502039,10.497583627700806,6.687,0.526,-4.553,0.3151,0.0724,-0.1235,0.117,0.756,-10.018,0.000342,-0.000909,0.001003
931,1711305174.526833,10.522377729415894,6.688,0.527,-4.553,0.316,0.0694,-0.1202,0.075,0.742,-10.029,0.00117,0.00079,0.000243
932,1711305174.5521257,10.547670364379883,6.69,0.526,-4.553,0.3161,0.0783,-0.1214,0.088,0.897,-9.958,0.000359,-0.000185,0.000142
933,1711305174.5770123,10.572556972503662,6.693,0.527,-4.553,0.317,0.0733,-0.119,0.126,0.785,-10.06,-0.000338,-0.000121,-0.000876
934,1711305174.6021023,10.597646951675415,6.692,0.528,-4.552,0.3179,0.0743,-0.1212,0.068,0.697,-9.991,-0.000195,0.000408,0.000501
935,1711305174.6271489,10.622693538665771,6.692,0.527,-4.553,0.318,0.0803,-0.1191,0.079,0.893,-10.011,0.001303,0.000595,0.000283
936,1711305174.651766,10.647310733795166,6.688,0.528,-4.552,0.3179,0.0773,-0.119,0.137,0.741,-9.964,-0.00174,0.000104,-0.000357
937,1711305174.6770883,10.672632932662964,6.685,0.529,-4.551,0.3189,0.0802,-0.1179,0.068,0.733,-10.015,0.000268,3.6e-05,-0.000381
938,1711305174.7020178,10.697562456130981,6.685,0.529,-4.553,0.3169,0.0694,-0.1267,0.122,0.861,-10.026,0.000734,-0.000888,0.00014
939,1711305174.7269166,10.722461223602295,6.683,0.529,-4.551,0.3179,0.0733,-0.1212,0.117,0.819,-9.984,-0.001741,-0.001384,-0.000287
940,1711305174.7520547,10.747599363327026,6.682,0.53,-4.552,0.317,0.0733,-0.1234,0.101,0.734,-10.021,0.00016,0.000216,8.8e-05
941,1711305174.777734,10.773278713226318,6.681,0.531,-4.553,0.317,0.0733,-0.1179,0.107,0.866,-10.045,0.000312,0.00034,0.000614
942,1711305174.8020337,10.79757833480835,6.682,0.53,-4.552,0.3178,0.0694,-0.1222,0.091,0.796,-9.985,-0.002147,-0.00096,-0.000107
943,1711305174.8269637,10.822508335113525,6.68,0.53,-4.552,0.317,0.0773,-0.1202,0.099,0.736,-10.016,-5e-06,-0.000129,-0.0004
944,1711305174.8525674,10.848112106323242,6.681,0.529,-4.552,0.3178,0.0694,-0.1233,0.073,0.807,-10.024,0.001866,-0.000184,0.000708
945,1711305174.877141,10.872685670852661,6.682,0.53,-4.55,0.3151,0.0744,-0.1181,0.124,0.826,-9.997,-0.000382,-0.000426,-0.001618
946,1711305174.9027336,10.89827823638916,6.683,0.531,-4.549,0.3159,0.0674,-0.1201,0.099,0.728,-9.95,-0.000461,0.000445,0.001125
947,1711305174.927434,10.922978639602661,6.681,0.53,-4.549,0.3169,0.0724,-0.1179,0.106,0.887,-10.08,3.1e-05,0.000662,0.000468
948,1711305174.9525723,10.948117017745972,6.683,0.531,-4.549,0.316,0.0704,-0.1202,0.121,0.825,-9.955,-0.00104,0.00014,0.00056
949,1711305174.9772105,10.972755193710327,6.684,0.533,-4.548,0.3179,0.0733,-0.1212,0.086,0.74,-9.914,-8.8e-05,0.00088,0.000209
950,1711305175.0026224,10.998167037963867,6.686,0.533,-4.549,0.3178,0.0694,-0.1255,0.093,0.844,-10.061,0.001303,0.000421,0.000576
951,1711305175.0276687,11.023213386535645,6.688,0.534,-4.549,0.3179,0.0713,-0.1244,0.116,0.805,-9.91,-0.000501,9.8e-05,4.4e-05
952,1711305175.0524645,11.048009157180786,6.69,0.534,-4.548,0.3161,0.0753,-0.1147,0.096,0.711,-10.018,-0.000115,0.000494,-0.000171
953,1711305175.0774007,11.072945356369019,6.689,0.534,-4.548,0.3179,0.0713,-0.1201,0.096,0.867,-10.096,0.002451,-8.4e-05,-0.000253
954,1711305175.1025357,11.098080396652222,6.691,0.534,-4.548,0.3179,0.0713,-0.1201,0.095,0.737,-9.93,-0.000705,-0.000816,-0.001665
955,1711305175.1271517,11.12269639968872,6.69,0.534,-4.548,0.318,0.0793,-0.1201,0.059,0.799,-9.94,-0.000468,0.000878,-0.000257
956,1711305175.1521304,11.147675037384033,6.686,0.534,-4.549,0.3188,0.0703,-0.12,0.111,0.756,-10.089,0.001633,-0.000166,-0.000166
957,1711305175.1774006,11.172945261001587,6.684,0.533,-4.548,0.3169,0.0704,-0.1234,0.083,0.874,-9.948,-0.000414,-0.000151,-0.00033
958,1711305175.2022576,11.197802305221558,6.684,0.533,-4.547,0.3179,0.0743,-0.1267,0.088,0.712,-9.975,-0.001694,0.000863,0.000708
959,1711305175.227764,11.223308563232422,6.684,0.532,-4.548,0.3188,0.0733,-0.1222,0.06,0.831,-10.066,0.000874,0.000194,0.000441
960,1711305175.2520487,11.247593402862549,6.686,0.533,-4.547,0.3189,0.0773,-0.119,0.083,0.863,-9.881,-0.000614,0.000208,0.000788
961,1711305175.277284,11.272828578948975,6.684,0.532,-4.547,0.3151,0.0734,-0.1203,0.072,0.716,-9.973,-0.000636,-0.000516,-0.000296
962,1711305175.3020537,11.297598361968994,6.686,0.532,-4.548,0.3179,0.0743,-0.1179,0.081,0.816,-10.083,0.000477,-0.000105,0.001113
963,1711305175.327237,11.322781562805176,6.685,0.533,-4.548,0.3188,0.0723,-0.12,0.092,0.827,-9.938,0.001003,0.000722,-0.000719
964,1711305175.3523097,11.347854375839233,6.685,0.533,-4.546,0.3187,0.0693,-0.12,0.094,0.686,-9.986,-0.001214,0.000341,0.000394
965,1711305175.3772259,11.372770547866821,6.685,0.533,-4.547,0.3188,0.0723,-0.1244,0.104,0.826,-10.098,0.000352,-0.000235,0.000348
966,1711305175.4019964,11.397541046142578,6.684,0.533,-4.546,0.3169,0.0714,-0.1223,0.081,0.82,-9.887,0.000624,-0.000811,0.000421
967,1711305175.4270852,11.422629833221436,6.684,0.533,-4.547,0.3179,0.0723,-0.1212,0.097,0.794,-10.036,-0.001336,-0.00022,0.000132
968,1711305175.4520962,11.447640895843506,6.684,0.533,-4.549,0.3188,0.0713,-0.1178,0.089,0.776,-10.038,0.000538,-0.000665,0.000313
969,1711305175.478688,11.47423267364502,6.681,0.533,-4.547,0.3188,0.0713,-0.1244,0.069,0.862,-9.871,0.001117,1.9e-05,8.8e-05
970,1711305175.501974,11.49751877784729,6.68,0.532,-4.546,0.3188,0.0743,-0.12,0.089,0.757,-9.978,0.000212,-0.000777,-0.000554
971,1711305175.5272007,11.522745370864868,6.681,0.532,-4.547,0.3188,0.0703,-0.1222,0.113,0.777,-10.054,0.001594,0.000916,0.001126
972,1711305175.5521438,11.547688484191895,6.683,0.531,-4.545,0.3188,0.0713,-0.1211,0.088,0.862,-9.933,0.000163,3.4e-05,3.2e-05
973,1711305175.5770793,11.57262396812439,6.681,0.53,-4.545,0.3169,0.0704,-0.1223,0.114,0.76,-9.964,-0.000689,-0.000332,0.001225
974,1711305175.6017463,11.597290992736816,6.685,0.53,-4.546,0.317,0.0743,-0.1202,0.061,0.746,-10.062,-0.000128,-0.000519,0.00099
975,1711305175.6271236,11.622668266296387,6.681,0.529,-4.546,0.3178,0.0704,-0.1211,0.099,0.893,-9.87,0.000352,-0.000572,0.000444
976,1711305175.6520085,11.647553205490112,6.684,0.531,-4.543,0.3179,0.0733,-0.119,0.115,0.685,-10.02,-0.000479,-0.000838,0.000373
977,1711305175.6769743,11.672518968582153,6.683,0.531,-4.545,0.317,0.0753,-0.1213,0.086,0.853,-10.097,0.000741,-5.2e-05,0.000992
978,1711305175.7018986,11.69744324684143,6.685,0.532,-4.547,0.317,0.0743,-0.1169,0.083,0.828,-9.943,-0.001133,0.001253,0.000411
979,1711305175.7268112,11.722355842590332,6.685,0.531,-4.547,0.316,0.0704,-0.1257,0.093,0.808,-10.006,-0.001726,0.000238,-0.000173
980,1711305175.751863,11.747407674789429,6.688,0.53,-4.55,0.3189,0.0782,-0.1212,0.069,0.704,-10.06,-0.000435,0.000737,0.000729
981,1711305175.7768748,11.772419452667236,6.687,0.531,-4.551,0.3197,0.0733,-0.1189,0.075,0.9,-9.924,0.001196,0.000145,-0.002554
982,1711305175.8026636,11.798208236694336,6.684,0.53,-4.55,0.3161,0.0763,-0.118,0.103,0.766,-10.019,-0.001415,0.000381,-0.000624
983,1711305175.8268132,11.822357892990112,6.684,0.53,-4.551,0.3188,0.0723,-0.1222,0.074,0.765,-9.998,0.000198,-9.5e-05,0.001687
984,1711305175.853417,11.848961591720581,6.684,0.531,-4.551,0.3169,0.0714,-0.1212,0.071,0.882,-9.943,0.000838,-6.6e-05,-0.00125
985,1711305175.8767867,11.872331380844116,6.68,0.531,-4.55,0.3179,0.0713,-0.1223,0.115,0.809,-10.017,-0.00131,0.000585,0.00012
986,1711305175.902591,11.898135662078857,6.682,0.532,-4.55,0.3198,0.0753,-0.1189,0.062,0.692,-10.027,0.001227,8.8e-05,0.000251
987,1711305175.927521,11.923065662384033,6.679,0.532,-4.549,0.3179,0.0773,-0.1201,0.105,0.894,-9.971,0.002159,0.000327,0.000554
988,1711305175.9538603,11.949404954910278,6.681,0.532,-4.548,0.317,0.0793,-0.118,0.094,0.757,-10.019,-0.001116,-0.000381,0.000872
989,1711305175.9771621,11.97270679473877,6.681,0.531,-4.547,0.3179,0.0713,-0.1223,0.054,0.75,-10.01,0.000766,0.000959,0.000106
990,1711305176.0025725,11.998117208480835,6.682,0.532,-4.547,0.3188,0.0703,-0.1266,0.125,0.856,-9.995,0.001241,-0.000119,0.000389
991,1711305176.0278146,12.023359298706055,6.681,0.532,-4.545,0.3179,0.0743,-0.1223,0.105,0.834,-10.044,1.1e-05,0.000334,-0.000887
992,1711305176.0525036,12.048048257827759,6.679,0.532,-4.545,0.3178,0.0694,-0.1189,0.09,0.715,-10.087,-0.00096,-0.00057,0.000538
993,1711305176.0772207,12.072765350341797,6.679,0.533,-4.545,0.3188,0.0723,-0.1189,0.112,0.933,-10.0,0.002646,8.5e-05,0.000182
994,1711305176.1024857,12.09803032875061,6.677,0.533,-4.545,0.3161,0.0753,-0.1191,0.066,0.77,-9.964,-0.001244,-0.000921,-0.000155
995,1711305176.1291876,12.124732255935669,6.676,0.533,-4.545,0.317,0.0773,-0.1213,0.097,0.778,-10.033,0.001362,-0.000375,0.001508
996,1711305176.1526299,12.148174524307251,6.676,0.534,-4.545,0.317,0.0753,-0.1246,0.12,0.85,-9.978,0.000602,0.000533,0.000543
997,1711305176.1773894,12.17293405532837,6.677,0.535,-4.546,0.3169,0.0724,-0.119,0.109,0.817,-9.996,-0.001159,0.001065,0.000502
998,1711305176.2019143,12.197458982467651,6.676,0.535,-4.545,0.317,0.0733,-0.119,0.076,0.695,-10.018,8.3e-05,-0.000209,0.000419
999,1711305176.2269807,12.222525358200073,6.672,0.536,-4.547,0.3198,0.0753,-0.1189,0.091,0.9,-10.011,0.00108,0.000606,-0.000883
1000,1711305176.2521405,12.247685194015503,6.67,0.536,-4.545,0.3178,0.0704,-0.1255,0.094,0.808,-9.964,-0.000878,0.000324,-0.001716
1001,1711305176.277953,12.273497581481934,6.673,0.535,-4.545,0.3178,0.0674,-0.1211,0.072,0.684,-10.016,0.000669,-0.000474,-0.000219
1002,1711305176.3024037,12.297948360443115,6.674,0.534,-4.546,0.3169,0.0704,-0.1168,0.104,0.927,-10.016,-0.000618,0.000977,-0.000568
1003,1711305176.3268902,12.322434902191162,6.675,0.535,-4.546,0.3178,0.0704,-0.1233,0.089,0.806,-9.903,-0.001551,-5.9e-05,0.000244
1004,1711305176.3520823,12.34762692451477,6.673,0.534,-4.547,0.316,0.0694,-0.1169,0.073,0.685,-10.025,-0.000923,0.000141,2e-06
1005,1711305176.3771346,12.372679233551025,6.675,0.534,-4.547,0.3179,0.0753,-0.1168,0.107,0.876,-9.986,0.002206,-1.5e-05,0.001199
1006,1711305176.4018664,12.397411108016968,6.677,0.534,-4.546,0.3179,0.0723,-0.119,0.076,0.839,-9.972,-0.000714,-0.000561,-0.000711
1007,1711305176.4270926,12.422637224197388,6.675,0.533,-4.546,0.3171,0.0803,-0.1202,0.062,0.741,-10.013,0.001582,0.001027,-0.000214
1008,1711305176.4533641,12.448908805847168,6.673,0.534,-4.547,0.316,0.0704,-0.1202,0.119,0.857,-10.038,-0.001059,-0.000762,-0.000717
1009,1711305176.476997,12.472541570663452,6.674,0.534,-4.548,0.3197,0.0743,-0.1145,0.078,0.829,-9.957,-0.000387,0.000335,0.00011
1010,1711305176.502147,12.497691631317139,6.674,0.534,-4.55,0.316,0.0694,-0.1256,0.15,0.591,-9.985,-0.003486,-0.001193,0.000735
1011,1711305176.5267658,12.522310495376587,6.673,0.534,-4.548,0.3161,0.0744,-0.1213,0.205,1.019,-10.136,0.001627,0.000512,0.000893
1012,1711305176.5524485,12.547993183135986,6.671,0.534,-4.548,0.319,0.0842,-0.1476,0.074,0.81,-10.017,-0.002562,-0.000604,-0.000742
1013,1711305176.5767052,12.57224988937378,6.666,0.533,-4.545,0.3163,0.0862,-0.1346,0.035,0.573,-9.987,-0.000983,-0.000627,0.001229
1014,1711305176.6015394,12.597084045410156,6.659,0.532,-4.543,0.318,0.0793,-0.1289,0.071,0.862,-10.037,-0.002777,-0.000762,0.001186
1015,1711305176.6266086,12.622153282165527,6.655,0.532,-4.545,0.3198,0.0772,-0.1288,0.059,0.779,-9.873,-0.002233,0.001094,0.000362
1016,1711305176.6526499,12.648194551467896,6.654,0.532,-4.547,0.3152,0.0803,-0.1291,0.094,0.468,-10.077,-0.006717,0.000564,0.002239
1017,1711305176.6774702,12.673014879226685,6.65,0.533,-4.546,0.3152,0.0783,-0.128,0.161,0.734,-10.086,0.003215,0.000826,6.8e-05
1018,1711305176.7028866,12.698431253433228,6.648,0.535,-4.546,0.3171,0.0783,-0.1312,0.171,0.972,-9.965,-0.000546,6.1e-05,0.000262
1019,1711305176.7269866,12.72253131866455,6.647,0.535,-4.544,0.3189,0.0763,-0.1288,0.111,0.567,-10.048,0.000438,0.000111,0.000143
1020,1711305176.752574,12.74811863899231,6.644,0.535,-4.542,0.317,0.0753,-0.13,0.132,0.889,-10.083,0.003057,0.000275,-0.001424
1021,1711305176.7776456,12.773190259933472,6.645,0.534,-4.542,0.317,0.0753,-0.1355,0.078,0.922,-10.026,-0.001256,-0.000821,0.000183
1022,1711305176.8025472,12.798091888427734,6.642,0.534,-4.542,0.3143,0.0823,-0.1292,0.098,0.683,-9.954,-0.002434,-0.000689,0.000437
1023,1711305176.8271518,12.822696447372437,6.638,0.533,-4.544,0.317,0.0773,-0.1301,0.062,0.877,-9.957,0.001417,0.000831,-0.00073
1024,1711305176.8524106,12.847955226898193,6.635,0.532,-4.544,0.3161,0.0793,-0.1258,0.068,0.787,-9.967,-0.003232,-0.000359,-0.001171
1025,1711305176.8773642,12.8729088306427,6.633,0.532,-4.543,0.3162,0.0862,-0.128,0.11,0.783,-9.981,0.001934,-0.000546,0.000939
1026,1711305176.9024162,12.897960901260376,6.628,0.531,-4.542,0.318,0.0793,-0.1278,0.034,0.874,-9.948,0.001805,0.00032,-0.000753
1027,1711305176.927109,12.922653675079346,6.624,0.531,-4.541,0.3162,0.0803,-0.1291,0.056,0.792,-9.977,-0.001024,0.000332,1.6e-05
1028,1711305176.9521422,12.947686910629272,6.62,0.531,-4.541,0.3161,0.0763,-0.1312,0.131,0.726,-10.047,0.001599,-6.1e-05,0.000736
1029,1711305176.9774177,12.972962379455566,6.614,0.532,-4.542,0.318,0.0783,-0.1256,0.046,0.935,-9.953,0.000656,0.000287,0.00012
1030,1711305177.0023916,12.997936248779297,6.612,0.533,-4.541,0.3189,0.0763,-0.1266,0.126,0.692,-9.981,-0.002233,0.000262,-0.000197
1031,1711305177.02696,13.022504568099976,6.607,0.533,-4.543,0.3198,0.0782,-0.1288,0.12,0.79,-10.054,0.001162,0.000133,-0.000847
1032,1711305177.0523908,13.047935485839844,6.602,0.534,-4.543,0.317,0.0763,-0.1311,0.076,0.879,-9.992,-0.000724,-0.000269,-0.000323
1033,1711305177.077548,13.073092699050903,6.6,0.533,-4.544,0.3161,0.0773,-0.129,0.036,0.692,-10.021,-0.001998,0.00092,0.000333
1034,1711305177.1022692,13.097813844680786,6.596,0.532,-4.545,0.3189,0.0753,-0.1266,0.166,0.827,-9.967,0.000739,-0.001948,0.000363
1035,1711305177.1278934,13.123438119888306,6.592,0.531,-4.545,0.3152,0.0783,-0.1291,0.062,0.886,-9.987,-0.000898,-0.000224,0.001118
1036,1711305177.1520884,13.147633075714111,6.588,0.53,-4.545,0.317,0.0773,-0.1279,0.045,0.636,-9.942,-0.001977,-0.000404,0.000311
1037,1711305177.1773398,13.172884464263916,6.582,0.528,-4.548,0.318,0.0783,-0.1289,0.153,0.893,-10.004,0.000804,-0.000994,-4e-06
1038,1711305177.2018025,13.197347164154053,6.576,0.528,-4.548,0.3152,0.0783,-0.1247,0.065,0.872,-9.912,-0.001583,-0.001015,8.2e-05
1039,1711305177.2274082,13.222952842712402,6.572,0.526,-4.549,0.3143,0.0823,-0.1248,0.054,0.65,-10.01,0.000615,-0.000789,0.001887
1040,1711305177.2520869,13.247631549835205,6.568,0.524,-4.55,0.3189,0.0783,-0.1256,0.111,0.922,-10.093,0.001627,-0.000417,0.000152
1041,1711305177.2773356,13.27288031578064,6.565,0.524,-4.55,0.3161,0.0754,-0.1334,0.086,0.832,-9.922,-0.001486,-0.00216,0.000197
1042,1711305177.3020952,13.297639846801758,6.563,0.524,-4.549,0.3161,0.0754,-0.129,0.123,0.557,-10.003,0.002068,-0.001147,0.001247
1043,1711305177.3266656,13.322210311889648,6.56,0.52,-4.551,0.3143,0.0803,-0.1292,0.07,0.933,-10.016,0.001797,-0.002016,0.00065
1044,1711305177.3519144,13.347459077835083,6.555,0.518,-4.55,0.3161,0.0754,-0.1268,0.075,0.797,-9.981,-0.002945,-0.00125,-0.000857
1045,1711305177.3772483,13.372792959213257,6.548,0.515,-4.551,0.318,0.0773,-0.1289,0.133,0.675,-10.032,-0.001028,-0.002376,0.00053
1046,1711305177.4016922,13.397236824035645,6.544,0.512,-4.552,0.3171,0.0833,-0.129,0.057,0.853,-9.952,0.001497,-0.001983,-0.000367
1047,1711305177.4271214,13.422666072845459,6.541,0.508,-4.553,0.317,0.0763,-0.129,0.043,0.797,-10.017,-0.003799,-0.002081,0.000568
1048,1711305177.452713,13.448257684707642,6.538,0.505,-4.553,0.317,0.0743,-0.1278,0.125,0.655,-10.033,0.001409,-0.002315,0.000719
1049,1711305177.477093,13.47263765335083,6.533,0.501,-4.555,0.3162,0.0813,-0.1236,0.027,0.879,-9.995,0.000544,-0.002342,-0.000739
1050,1711305177.5016317,13.4971764087677,6.53,0.499,-4.553,0.3161,0.0754,-0.1246,0.054,0.752,-10.027,-0.00235,-0.001707,-0.000553
1051,1711305177.5269473,13.522491931915283,6.525,0.496,-4.553,0.3152,0.0754,-0.1269,0.099,0.755,-10.049,0.001779,-0.002105,-0.000227
1052,1711305177.5526953,13.548239946365356,6.521,0.493,-4.553,0.3153,0.0813,-0.1302,0.053,0.895,-10.052,-0.000685,-0.001888,-0.000586
1053,1711305177.5772204,13.572765111923218,6.518,0.492,-4.552,0.3179,0.0753,-0.1278,0.159,0.85,-9.908,-0.00076,-0.002348,0.000464
1054,1711305177.6022794,13.597824096679688,6.516,0.491,-4.553,0.3143,0.0784,-0.1248,0.079,0.844,-9.955,0.001163,-0.000199,-0.000553
1055,1711305177.6274793,13.623023986816406,6.514,0.489,-4.55,0.318,0.0793,-0.1256,0.039,0.659,-9.961,0.001588,-0.002432,-0.001519
1056,1711305177.6530242,13.648568868637085,6.511,0.488,-4.549,0.3162,0.0833,-0.1269,0.133,0.829,-10.043,0.004491,0.000788,0.000548
1057,1711305177.677087,13.672631740570068,6.508,0.487,-4.548,0.3143,0.0774,-0.1269,0.089,0.858,-10.085,-0.001887,0.000458,-0.000253
1058,1711305177.7025278,13.69807243347168,6.504,0.488,-4.546,0.3161,0.0754,-0.1268,0.151,0.764,-9.949,0.001382,-0.000319,0.000752
1059,1711305177.727173,13.722717761993408,6.497,0.488,-4.546,0.3153,0.0833,-0.1291,0.055,0.799,-9.945,0.001526,0.000651,-0.000358
1060,1711305177.7521374,13.747682094573975,6.491,0.488,-4.544,0.317,0.0783,-0.1235,0.071,0.751,-9.917,-0.002103,-2.2e-05,-0.001189
1061,1711305177.777408,13.772952556610107,6.488,0.488,-4.545,0.317,0.0773,-0.1268,0.089,0.818,-10.007,0.002368,0.000749,-0.000601
1062,1711305177.80248,13.798024654388428,6.486,0.487,-4.542,0.317,0.0773,-0.1268,-0.014,0.827,-9.955,-0.001324,-0.001836,0.000304
1063,1711305177.82705,13.82259464263916,6.484,0.487,-4.544,0.3171,0.0793,-0.1235,0.118,0.794,-10.011,0.002431,-0.000152,0.000944
1064,1711305177.8523338,13.847878456115723,6.479,0.485,-4.545,0.3152,0.0793,-0.1258,0.073,0.797,-10.138,-0.002989,0.000128,-0.00112
1065,1711305177.8770473,13.872591972351074,6.474,0.485,-4.544,0.3189,0.0763,-0.1212,0.153,0.742,-9.939,-0.000643,-0.001163,-0.000444
1066,1711305177.9022932,13.89783787727356,6.469,0.485,-4.546,0.3188,0.0733,-0.1299,0.035,0.885,-9.919,0.000801,0.000828,-0.000526
1067,1711305177.9270937,13.922638416290283,6.468,0.485,-4.547,0.3179,0.0743,-0.1256,0.042,0.741,-9.972,-0.001997,7.3e-05,-0.000888
1068,1711305177.952227,13.947771787643433,6.468,0.486,-4.548,0.3161,0.0773,-0.1279,0.158,0.784,-10.03,0.002288,0.002354,0.001241
1069,1711305177.9779577,13.973502397537231,6.465,0.487,-4.548,0.318,0.0822,-0.1257,0.032,0.892,-10.087,-0.003602,0.001318,-0.000135
1070,1711305178.002146,13.997690677642822,6.457,0.487,-4.546,0.3189,0.0753,-0.1277,0.122,0.754,-9.998,0.000976,-0.000451,-0.000595
1071,1711305178.026963,14.022507667541504,6.451,0.488,-4.546,0.3144,0.0843,-0.1281,0.101,0.786,-10.059,0.000723,0.000164,-0.00023
1072,1711305178.0521588,14.047703504562378,6.447,0.487,-4.543,0.318,0.0812,-0.1268,0.11,0.745,-9.974,8.2e-05,-0.00089,0.000704
1073,1711305178.0770848,14.072629451751709,6.443,0.485,-4.544,0.3142,0.0754,-0.1269,0.051,0.859,-9.948,0.001203,0.000784,-0.000882
1074,1711305178.1018846,14.097429275512695,6.438,0.485,-4.541,0.317,0.0763,-0.1268,0.017,0.715,-9.938,-0.000376,-0.00045,-0.000589
1075,1711305178.1268015,14.12234616279602,6.433,0.485,-4.541,0.3161,0.0754,-0.1246,0.122,0.784,-9.994,0.003504,-1.4e-05,-0.00103
1076,1711305178.1520052,14.147549867630005,6.432,0.484,-4.542,0.318,0.0773,-0.1234,0.072,0.84,-10.129,-0.003598,-9.1e-05,0.00021
1077,1711305178.1771564,14.172701120376587,6.429,0.485,-4.54,0.318,0.0773,-0.1267,0.144,0.768,-9.96,0.002472,0.000311,0.000145
1078,1711305178.2018359,14.197380542755127,6.425,0.486,-4.541,0.3152,0.0764,-0.128,0.067,0.884,-9.946,0.000748,0.001251,-0.00022
1079,1711305178.22687,14.22241473197937,6.423,0.487,-4.542,0.317,0.0753,-0.1235,0.103,0.682,-10.019,-0.002398,-0.000339,-0.001063
1080,1711305178.2516565,14.247201204299927,6.417,0.487,-4.544,0.3189,0.0773,-0.1234,0.086,0.853,-9.973,0.000697,0.001534,-0.000398
1081,1711305178.276936,14.272480726242065,6.412,0.486,-4.544,0.3198,0.0792,-0.1244,0.016,0.825,-10.008,-0.002627,-0.000676,-0.000939
1082,1711305178.301994,14.297538757324219,6.408,0.487,-4.544,0.317,0.0783,-0.1257,0.153,0.756,-10.035,0.003217,1.4e-05,0.000321
1083,1711305178.3266876,14.322232246398926,6.403,0.487,-4.545,0.3181,0.0852,-0.1246,0.082,0.837,-10.135,-0.002518,-0.000336,-0.000675
1084,1711305178.3518398,14.347384452819824,6.399,0.487,-4.543,0.318,0.0783,-0.1245,0.129,0.755,-9.979,0.001273,-0.000375,0.000729
1085,1711305178.3766563,14.372200965881348,6.393,0.486,-4.545,0.3161,0.0773,-0.1257,0.045,0.823,-10.006,0.000436,-0.00063,0.000877
1086,1711305178.403,14.398544788360596,6.387,0.487,-4.544,0.318,0.0773,-0.1267,0.068,0.715,-9.924,-0.000422,0.000764,-0.001835
1087,1711305178.4267285,14.4222731590271,6.38,0.486,-4.546,0.3152,0.0774,-0.1269,0.044,0.856,-10.014,0.001331,0.001274,0.000601
1088,1711305178.4523904,14.447935104370117,6.375,0.486,-4.544,0.3161,0.0763,-0.1257,0.018,0.763,-9.949,-0.001071,-0.00076,0.000369
1089,1711305178.4775505,14.473095178604126,6.371,0.486,-4.544,0.316,0.0734,-0.1235,0.123,0.801,-9.991,0.0038,-0.000122,0.000313
1090,1711305178.5024865,14.49803113937378,6.369,0.486,-4.545,0.3189,0.0753,-0.1299,0.058,0.869,-10.121,-0.003001,0.000265,-0.000864
1091,1711305178.5274036,14.522948265075684,6.37,0.486,-4.544,0.3189,0.0763,-0.1266,0.119,0.771,-10.0,0.000276,-0.000389,0.001076
1092,1711305178.552528,14.548072576522827,6.366,0.483,-4.557,0.3134,0.0804,-0.1259,0.051,0.591,-10.19,-0.001615,0.000567,0.000308
1093,1711305178.5774581,14.573002815246582,6.36,0.483,-4.556,0.317,0.0763,-0.129,0.139,0.674,-10.011,0.000834,-0.000171,0.000132
1094,1711305178.6024573,14.598001956939697,6.359,0.481,-4.563,0.3171,0.0803,-0.1268,0.085,0.86,-9.959,-0.008012,-0.001916,0.001595
1095,1711305178.627213,14.62275767326355,6.355,0.48,-4.566,0.3162,0.0803,-0.1269,0.01,0.658,-9.927,-0.001692,-0.002213,-0.001263
1096,1711305178.6524045,14.64794921875,6.352,0.479,-4.573,0.317,0.0763,-0.1235,0.113,0.816,-9.979,-0.00247,-2.4e-05,0.000596
1097,1711305178.6774087,14.672953367233276,6.35,0.477,-4.581,0.3143,0.0833,-0.1248,0.027,0.831,-10.06,-0.008272,-0.000505,-0.001505
1098,1711305178.7023609,14.697905540466309,6.348,0.476,-4.595,0.3172,0.0872,-0.1247,0.117,0.822,-9.954,-0.009478,-0.001697,0.000836
1099,1711305178.7272747,14.722819328308105,6.343,0.47,-4.613,0.3171,0.0832,-0.1257,0.053,0.737,-10.075,-0.018168,-0.004414,0.00034
1100,1711305178.7522986,14.747843265533447,6.338,0.473,-4.6,0.316,0.0734,-0.1279,0.196,1.674,-8.867,0.02329,-0.001094,-0.001527
1101,1711305178.7770958,14.772640466690063,6.341,0.464,-4.646,0.3161,0.0793,-0.1258,0.018,0.866,-10.068,-0.001509,-0.000142,0.000168
1102,1711305178.802344,14.79788875579834,6.336,0.465,-4.642,0.318,0.0773,-0.1278,0.041,0.673,-9.857,-0.001149,-0.000635,-9.3e-05
1103,1711305178.826942,14.822486639022827,6.332,0.468,-4.637,0.3171,0.0793,-0.1301,0.141,0.743,-10.016,0.008149,0.001684,-0.000977
1104,1711305178.852397,14.847941637039185,6.33,0.468,-4.635,0.3179,0.0763,-0.13,-0.008,0.823,-9.998,-0.00274,-0.000185,0.000179
1105,1711305178.8769808,14.872525453567505,6.328,0.469,-4.632,0.3152,0.0764,-0.1269,0.137,0.828,-9.965,0.005697,0.000888,-0.0
1106,1711305178.9019315,14.897476196289062,6.323,0.47,-4.626,0.317,0.0763,-0.1246,0.113,0.841,-10.098,0.003171,0.001083,-0.000944
1107,1711305178.9269679,14.922512531280518,6.316,0.473,-4.612,0.3235,0.0781,-0.1143,0.16,0.794,-9.995,0.00943,0.001278,-0.000234
1108,1711305178.9523106,14.947855234146118,6.311,0.476,-4.596,0.3171,0.0842,-0.1247,0.014,0.961,-9.95,0.010403,0.002538,-0.00176
1109,1711305178.9769094,14.972454071044922,6.305,0.479,-4.58,0.3244,0.0781,-0.1099,0.081,0.707,-9.883,0.008745,0.002434,-0.000518
1110,1711305179.0021422,14.997686862945557,6.301,0.478,-4.587,0.3161,0.0803,-0.1192,0.026,0.534,-10.457,-0.011028,0.000627,0.000253
1111,1711305179.0269725,15.022517204284668,6.296,0.481,-4.57,0.3207,0.0742,-0.121,0.034,0.599,-9.992,0.000507,0.002187,-0.000787
1112,1711305179.0530727,15.048617362976074,6.296,0.483,-4.567,0.3161,0.0773,-0.1202,0.115,0.712,-9.948,0.00619,0.001198,5e-05
1113,1711305179.0767872,15.07233190536499,6.295,0.483,-4.572,0.3199,0.0802,-0.1244,0.09,0.744,-10.595,0.006123,0.001682,-1.1e-05
1114,1711305179.102197,15.097741603851318,6.292,0.484,-4.572,0.319,0.0842,-0.119,0.185,0.92,-9.863,0.000483,-2.5e-05,8.8e-05
1115,1711305179.1267262,15.122270822525024,6.289,0.484,-4.572,0.317,0.0783,-0.1224,0.081,0.876,-10.074,-0.000106,0.001042,-0.000582
1116,1711305179.1527395,15.148284196853638,6.287,0.484,-4.569,0.3198,0.0802,-0.1178,0.151,0.736,-10.009,0.002212,-0.000904,-0.000179
1117,1711305179.1768959,15.172440528869629,6.282,0.484,-4.57,0.317,0.0763,-0.1202,0.058,0.867,-10.06,-0.000749,-0.000303,-0.000166
1118,1711305179.2017412,15.197285890579224,6.278,0.484,-4.569,0.3171,0.0803,-0.1191,0.116,0.689,-9.927,-0.000378,0.00018,-0.000737
1119,1711305179.227143,15.222687721252441,6.271,0.483,-4.57,0.3161,0.0763,-0.1257,0.102,0.86,-9.997,0.001204,-0.000243,-0.000817
1120,1711305179.2520027,15.247547388076782,6.267,0.482,-4.569,0.3199,0.0812,-0.1212,0.062,0.695,-9.909,-0.00136,-0.000261,0.000502
1121,1711305179.2770684,15.272613048553467,6.261,0.484,-4.57,0.3189,0.0763,-0.1277,0.108,0.832,-9.923,0.002723,0.000609,0.000255
1122,1711305179.302733,15.298277616500854,6.261,0.484,-4.569,0.318,0.0793,-0.1234,-0.012,0.822,-9.941,-0.001012,0.000578,-0.001548
1123,1711305179.3267624,15.322307109832764,6.257,0.486,-4.569,0.3179,0.0773,-0.1223,0.099,0.79,-10.003,0.003098,0.000851,0.000267
1124,1711305179.3526719,15.348216533660889,6.253,0.485,-4.569,0.3171,0.0803,-0.1224,0.08,0.852,-10.057,-0.000896,-0.000122,0.000126
1125,1711305179.3772373,15.372781991958618,6.252,0.486,-4.569,0.318,0.0793,-0.1201,0.136,0.782,-9.976,0.000914,-0.000312,-0.000102
1126,1711305179.402594,15.398138761520386,6.249,0.486,-4.57,0.318,0.0803,-0.1213,0.057,0.846,-10.101,-0.001788,0.000463,0.000482
1127,1711305179.426493,15.422037601470947,6.244,0.487,-4.57,0.3188,0.0753,-0.1233,0.136,0.711,-9.994,0.00194,0.000951,6.6e-05
1128,1711305179.452531,15.448075771331787,6.24,0.486,-4.572,0.3142,0.0754,-0.1269,0.072,0.845,-10.002,-0.000322,0.000959,-0.000275
1129,1711305179.4778495,15.47339415550232,6.24,0.486,-4.572,0.3179,0.0773,-0.1212,0.065,0.729,-9.938,-8.9e-05,-0.000286,0.000218
1130,1711305179.5025666,15.498111248016357,6.24,0.486,-4.574,0.318,0.0773,-0.13,0.101,0.833,-9.975,0.001115,0.001739,-0.000253
1131,1711305179.527395,15.522939682006836,6.236,0.486,-4.572,0.3162,0.0813,-0.1269,0.012,0.81,-9.978,-1.1e-05,-0.000376,0.000226
1132,1711305179.5523953,15.547940015792847,6.232,0.487,-4.573,0.3188,0.0743,-0.1244,0.133,0.82,-9.989,0.002241,-0.000194,0.00034
1133,1711305179.5773551,15.57289981842041,6.229,0.486,-4.573,0.3161,0.0783,-0.1279,0.055,0.859,-10.107,-0.000897,0.000163,-0.00121
1134,1711305179.60237,15.597914695739746,6.225,0.486,-4.573,0.318,0.0812,-0.1246,0.151,0.779,-10.018,0.000911,-0.001007,-0.000484
1135,1711305179.627061,15.622605562210083,6.22,0.487,-4.575,0.3143,0.0784,-0.1248,0.061,0.841,-9.992,-0.001337,0.000831,-0.000351
1136,1711305179.6523385,15.647883176803589,6.214,0.488,-4.574,0.3189,0.0812,-0.1234,0.082,0.688,-9.929,0.000838,0.000126,-0.001806
1137,1711305179.6772673,15.67281198501587,6.213,0.488,-4.576,0.3198,0.0782,-0.1211,0.106,0.836,-9.988,0.001657,0.000662,0.001076
1138,1711305179.702222,15.697766780853271,6.212,0.487,-4.574,0.318,0.0773,-0.1234,0.016,0.793,-9.965,-0.001773,0.000451,-0.000711
1139,1711305179.7272842,15.72282886505127,6.211,0.488,-4.575,0.318,0.0812,-0.1224,0.144,0.797,-9.999,0.002943,0.0003,0.000555
1140,1711305179.7522404,15.747785091400146,6.208,0.486,-4.575,0.3162,0.0813,-0.1247,0.066,0.89,-10.087,-0.002317,8.2e-05,-0.000815
1141,1711305179.7772193,15.772763967514038,6.204,0.488,-4.576,0.3179,0.0753,-0.1267,0.111,0.746,-10.008,0.001537,0.000391,-0.001244
1142,1711305179.8021262,15.797670841217041,6.201,0.487,-4.576,0.3152,0.0783,-0.1214,0.062,0.839,-10.011,0.000587,0.00104,-0.000887
1143,1711305179.8270462,15.822590827941895,6.199,0.487,-4.575,0.3189,0.0782,-0.119,0.069,0.699,-9.96,-0.000171,-0.001082,0.000945
1144,1711305179.852243,15.847787618637085,6.196,0.486,-4.576,0.3162,0.0823,-0.128,0.066,0.86,-10.008,0.000403,-0.000701,-0.000424
1145,1711305179.8770785,15.872623205184937,6.19,0.486,-4.573,0.3189,0.0773,-0.1256,0.036,0.8,-9.929,-0.000413,-0.001316,-0.002603
1146,1711305179.9019275,15.897472143173218,6.185,0.486,-4.574,0.3162,0.0823,-0.1225,0.121,0.832,-10.003,0.002494,0.000171,0.000142
1147,1711305179.9268794,15.922424077987671,6.181,0.485,-4.574,0.3181,0.0842,-0.1235,0.076,0.843,-10.109,-0.002286,0.001215,-0.001221
1148,1711305179.952186,15.947730779647827,6.178,0.486,-4.572,0.3172,0.0862,-0.1214,0.133,0.749,-9.942,0.003677,-8.9e-05,0.000851
1149,1711305179.9768927,15.972437381744385,6.176,0.485,-4.573,0.319,0.0842,-0.13,0.019,0.79,-9.991,-0.000522,-0.000227,-0.000607
1150,1711305180.0018768,15.997421503067017,6.174,0.484,-4.571,0.318,0.0773,-0.1256,0.131,0.688,-10.012,0.001084,-0.000886,-0.000105
1151,1711305180.026959,16.02250361442566,6.172,0.483,-4.572,0.3171,0.0793,-0.1224,0.048,0.879,-9.996,0.000391,0.001111,-0.000362
1152,1711305180.0519423,16.047487020492554,6.167,0.483,-4.571,0.317,0.0773,-0.1202,-0.044,0.801,-9.95,-0.001112,-7.9e-05,-0.000684
1153,1711305180.0767379,16.072282552719116,6.162,0.481,-4.573,0.3198,0.0762,-0.1233,0.079,0.735,-10.057,0.000954,0.000172,5.2e-05
1154,1711305180.1019924,16.09753704071045,6.158,0.48,-4.572,0.3171,0.0823,-0.1235,0.016,0.83,-10.112,-0.002504,0.000109,-0.000621
1155,1711305180.1271255,16.12267017364502,6.156,0.478,-4.572,0.3207,0.0762,-0.1199,0.051,0.714,-10.066,0.001663,-0.001183,-0.000131
1156,1711305180.1519825,16.14752721786499,6.152,0.476,-4.574,0.3189,0.0763,-0.1223,-0.021,0.852,-10.022,-0.001409,-0.000671,-0.000304
1157,1711305180.1771343,16.17267894744873,6.151,0.473,-4.574,0.3198,0.0753,-0.1189,0.107,0.701,-9.996,-0.0005,-0.001606,-0.000734
1158,1711305180.202037,16.19758176803589,6.151,0.469,-4.577,0.3198,0.0762,-0.1233,-0.077,0.852,-9.945,-0.000116,-0.001627,0.000234
1159,1711305180.2289147,16.224459409713745,6.151,0.464,-4.576,0.3208,0.0812,-0.1233,-0.003,0.776,-9.961,-0.001102,-0.002611,-0.001201
1160,1711305180.2526085,16.24815320968628,6.149,0.459,-4.577,0.3198,0.0763,-0.1255,-0.026,0.813,-9.988,0.002869,-0.002031,0.000154
1161,1711305180.2775526,16.273097276687622,6.149,0.452,-4.579,0.3207,0.0772,-0.1189,-0.054,0.871,-10.088,-0.004558,-0.002564,-0.00121
1162,1711305180.3026268,16.298171520233154,6.147,0.446,-4.58,0.3225,0.0742,-0.122,-0.031,0.761,-9.967,0.000603,-0.002913,-0.000149
1163,1711305180.327058,16.32260274887085,6.145,0.441,-4.581,0.3171,0.0852,-0.1236,-0.093,0.879,-10.05,-0.000587,-0.002109,8.5e-05
1164,1711305180.3525558,16.348100423812866,6.145,0.436,-4.581,0.3216,0.0762,-0.1243,-0.003,0.688,-9.981,-0.000695,-0.002887,-9.5e-05
1165,1711305180.377404,16.37294864654541,6.147,0.431,-4.583,0.318,0.0783,-0.1223,-0.216,0.804,-9.944,0.000239,-0.002804,-0.000665
1166,1711305180.4021819,16.39772653579712,6.145,0.426,-4.581,0.3179,0.0753,-0.1223,-0.062,0.698,-9.933,-0.000469,-0.00406,0.000277
1167,1711305180.4271567,16.422701358795166,6.141,0.422,-4.583,0.3199,0.0842,-0.1223,-0.132,0.82,-9.932,0.002391,-0.000315,-0.000447
1168,1711305180.4526799,16.448224544525146,6.139,0.419,-4.582,0.3207,0.0762,-0.1188,-0.139,0.834,-9.977,-0.002121,-0.000466,-0.001588
1169,1711305180.477372,16.47291660308838,6.137,0.417,-4.583,0.318,0.0822,-0.1235,-0.177,0.774,-9.917,0.001199,0.000392,0.000791
1170,1711305180.5024157,16.497960329055786,6.137,0.416,-4.584,0.318,0.0773,-0.1289,-0.115,0.877,-10.06,-0.001208,0.001161,-0.000391
1171,1711305180.527131,16.52267575263977,6.139,0.415,-4.583,0.3198,0.0743,-0.1211,-0.048,0.68,-10.01,0.00206,0.000683,0.001198
1172,1711305180.5522704,16.547815084457397,6.139,0.414,-4.584,0.3161,0.0763,-0.1213,-0.245,0.855,-9.94,0.000434,0.000419,-0.000223
1173,1711305180.5772898,16.572834491729736,6.133,0.413,-4.583,0.3189,0.0782,-0.1168,-0.048,0.677,-9.96,0.00077,-0.000201,-0.001852
1174,1711305180.6020176,16.597562313079834,6.131,0.412,-4.584,0.3198,0.0772,-0.1244,-0.18,0.826,-9.968,0.002386,0.000167,-0.000207
1175,1711305180.6271772,16.622721910476685,6.13,0.411,-4.584,0.3207,0.0772,-0.1243,-0.163,0.818,-10.01,-0.003242,0.000482,-0.001156
1176,1711305180.6521785,16.64772319793701,6.129,0.41,-4.583,0.3198,0.0772,-0.1244,-0.165,0.813,-9.948,0.001135,-0.001821,0.00052
1177,1711305180.6770523,16.67259693145752,6.129,0.409,-4.583,0.3189,0.0763,-0.1266,-0.148,0.846,-10.099,-0.000693,-0.000361,-0.000764
1178,1711305180.7022412,16.6977858543396,6.13,0.407,-4.583,0.3198,0.0772,-0.1189,-0.039,0.703,-10.008,-0.001156,-0.000481,0.001042
1179,1711305180.7269428,16.722487449645996,6.126,0.404,-4.584,0.319,0.0822,-0.1234,-0.298,0.808,-9.947,0.00106,-0.00104,-0.000192
1180,1711305180.7521808,16.74772548675537,6.124,0.402,-4.583,0.3207,0.0772,-0.1254,-0.115,0.723,-9.922,0.000206,-0.001432,0.000421
1181,1711305180.776897,16.772441625595093,6.123,0.4,-4.583,0.3198,0.0772,-0.1167,-0.18,0.812,-9.946,0.00162,-0.000208,0.001734
1182,1711305180.8021722,16.797716856002808,6.12,0.398,-4.585,0.3189,0.0792,-0.1256,-0.155,0.857,-10.144,-0.003713,-0.000213,0.000909
1183,1711305180.8270116,16.822556257247925,6.118,0.397,-4.584,0.3225,0.0752,-0.1187,-0.104,0.754,-9.966,0.000377,-0.000346,0.000569
1184,1711305180.8521247,16.84766936302185,6.118,0.397,-4.586,0.3189,0.0753,-0.1266,-0.197,0.877,-9.988,-0.000369,0.00114,-0.000284
1185,1711305180.877074,16.872618675231934,6.119,0.395,-4.586,0.3217,0.0792,-0.1232,-0.074,0.662,-9.998,9.4e-05,0.000327,-0.00049
1186,1711305180.9021862,16.897730827331543,6.119,0.395,-4.587,0.3198,0.0772,-0.1222,-0.203,0.837,-9.96,0.000967,0.000714,6e-05
1187,1711305180.9270122,16.92255687713623,6.119,0.394,-4.586,0.3189,0.0792,-0.1267,-0.124,0.876,-10.054,-0.0014,0.00067,-0.001379
1188,1711305180.9518392,16.947383880615234,6.12,0.393,-4.587,0.3207,0.0782,-0.1233,-0.163,0.756,-9.961,0.000573,0.000412,0.001137
1189,1711305180.9769478,16.972492456436157,6.118,0.391,-4.589,0.3179,0.0763,-0.1267,-0.191,0.87,-10.087,-0.000747,0.000763,-0.000541
1190,1711305181.0019069,16.997451543807983,6.118,0.388,-4.589,0.3198,0.0802,-0.12,-0.07,0.653,-9.949,-0.001207,-0.001469,-0.000711
1191,1711305181.0267136,17.022258281707764,6.113,0.385,-4.591,0.3189,0.0763,-0.1212,-0.251,0.827,-9.951,0.000942,-0.00259,0.000648
1192,1711305181.0519826,17.047527313232422,6.115,0.382,-4.59,0.3198,0.0792,-0.1222,-0.123,0.837,-10.104,-0.000608,-0.000138,-0.000412
1193,1711305181.0765557,17.072100400924683,6.113,0.378,-4.59,0.3197,0.0733,-0.1211,-0.174,0.78,-9.952,0.000182,-0.001653,0.000966
1194,1711305181.1020067,17.097551345825195,6.112,0.374,-4.59,0.3208,0.0802,-0.1244,-0.234,0.898,-10.04,0.000234,-0.001303,0.000599
1195,1711305181.126797,17.122341632843018,6.111,0.37,-4.588,0.3207,0.0742,-0.1232,-0.12,0.662,-9.931,-9.4e-05,-0.002612,-0.001779
1196,1711305181.1519485,17.14749312400818,6.11,0.367,-4.59,0.3208,0.0792,-0.12,-0.234,0.804,-10.044,0.001488,0.001093,-0.000149
1197,1711305181.1766956,17.172240257263184,6.109,0.364,-4.59,0.3189,0.0822,-0.1201,-0.16,0.858,-10.129,-0.003409,0.000133,2.7e-05
1198,1711305181.2024887,17.198033332824707,6.111,0.361,-4.592,0.3207,0.0772,-0.12,-0.162,0.752,-9.906,-0.002078,0.000142,0.001352
1199,1711305181.2269385,17.222483158111572,6.106,0.357,-4.593,0.3188,0.0753,-0.1244,-0.279,0.807,-10.006,0.001669,0.000851,0.000784
1200,1711305181.2525427,17.248087406158447,6.103,0.353,-4.591,0.3179,0.0763,-0.1256,-0.173,0.698,-10.042,0.000394,-0.000356,-0.001125
1201,1711305181.2774591,17.273003816604614,6.104,0.35,-4.593,0.3188,0.0753,-0.12,-0.214,0.761,-9.99,0.002098,-0.001003,0.00121
1202,1711305181.3024747,17.298019409179688,6.105,0.346,-4.594,0.317,0.0763,-0.1224,-0.277,0.894,-10.014,-0.001567,0.00042,0.000718
1203,1711305181.3273275,17.322872161865234,6.103,0.343,-4.594,0.3226,0.0791,-0.121,-0.165,0.668,-10.018,-0.001725,0.000103,-0.000299
1204,1711305181.352392,17.347936630249023,6.099,0.34,-4.597,0.3179,0.0733,-0.1179,-0.226,0.831,-10.059,-0.00024,0.00103,0.00174
1205,1711305181.377411,17.372955560684204,6.1,0.336,-4.599,0.3207,0.0752,-0.1287,-0.24,0.917,-10.046,-0.002805,-0.000279,-0.000182
1206,1711305181.4025981,17.39814281463623,6.1,0.333,-4.601,0.3188,0.0723,-0.1244,-0.254,0.705,-9.938,-0.001984,-0.000503,0.000518
1207,1711305181.4282749,17.423819541931152,6.103,0.33,-4.603,0.3198,0.0743,-0.1211,-0.241,0.845,-9.987,0.000748,-0.000593,0.001432
1208,1711305181.452032,17.447576761245728,6.104,0.325,-4.603,0.317,0.0763,-0.1224,-0.227,0.843,-10.019,-0.00227,-0.001474,0.000479
1209,1711305181.4769447,17.47248935699463,6.102,0.321,-4.606,0.3189,0.0822,-0.1168,-0.223,0.718,-9.949,-0.001261,0.00056,0.001402
1210,1711305181.5023134,17.49785804748535,6.099,0.318,-4.607,0.3207,0.0742,-0.1243,-0.303,0.851,-9.909,-0.001011,-0.000817,0.000572
1211,1711305181.5272193,17.522763967514038,6.101,0.314,-4.608,0.317,0.0783,-0.1213,-0.243,0.759,-10.024,-0.001019,-0.000271,0.000641
1212,1711305181.551946,17.54749059677124,6.102,0.311,-4.61,0.3206,0.0713,-0.1177,-0.236,0.719,-9.972,0.000106,-0.001141,0.000393
1213,1711305181.5773985,17.572943210601807,6.104,0.308,-4.611,0.317,0.0743,-0.1202,-0.308,0.893,-9.922,-0.000339,0.000558,0.000871
1214,1711305181.6018422,17.597386837005615,6.104,0.304,-4.611,0.3198,0.0792,-0.1211,-0.226,0.712,-9.987,-0.00109,-0.000756,0.000933
1215,1711305181.626803,17.622347593307495,6.107,0.299,-4.612,0.3207,0.0762,-0.1199,-0.254,0.766,-9.989,0.002459,-0.000489,0.000356
1216,1711305181.651917,17.647461652755737,6.107,0.295,-4.611,0.3189,0.0763,-0.1255,-0.342,0.945,-10.007,-0.000489,-9.8e-05,0.00081
1217,1711305181.6771588,17.672703504562378,6.109,0.291,-4.61,0.3189,0.0773,-0.119,-0.246,0.7,-10.01,-0.001055,-0.000475,0.000796
1218,1711305181.7021294,17.697674036026,6.109,0.288,-4.611,0.3178,0.0713,-0.119,-0.266,0.791,-10.089,0.000639,-0.000401,-0.001272
1219,1711305181.7267876,17.722332239151,6.11,0.283,-4.613,0.3189,0.0763,-0.119,-0.324,0.899,-9.999,-0.003275,-0.001039,0.000436
1220,1711305181.7522902,17.74783492088318,6.111,0.279,-4.613,0.3198,0.0753,-0.1233,-0.26,0.624,-9.966,-0.000831,-0.000338,-0.000815
1221,1711305181.7771533,17.772697925567627,6.113,0.275,-4.616,0.3188,0.0753,-0.12,-0.32,0.845,-10.044,0.000448,-0.000185,0.00059
1222,1711305181.8018816,17.797426223754883,6.112,0.269,-4.618,0.3198,0.0792,-0.1189,-0.321,0.834,-10.031,-0.003609,-0.001457,0.000585
1223,1711305181.826949,17.82249355316162,6.111,0.264,-4.62,0.3198,0.0762,-0.1178,-0.266,0.664,-9.856,-0.001542,-0.001572,-0.00053
1224,1711305181.8517654,17.847310066223145,6.112,0.26,-4.622,0.3216,0.0732,-0.122,-0.283,0.884,-9.987,0.000718,0.000108,0.000546
1225,1711305181.8769422,17.87248682975769,6.11,0.255,-4.625,0.3161,0.0763,-0.1202,-0.289,0.839,-10.047,-0.004261,-0.001267,-0.000904
1226,1711305181.9020197,17.89756441116333,6.114,0.252,-4.628,0.3179,0.0773,-0.1223,-0.245,0.708,-9.906,-0.002757,-0.000627,-4.3e-05
1227,1711305181.9267642,17.922308921813965,6.115,0.247,-4.632,0.317,0.0733,-0.1201,-0.276,0.896,-10.005,-0.001321,2.9e-05,3.5e-05
1228,1711305181.9519186,17.947463274002075,6.115,0.244,-4.633,0.3189,0.0763,-0.1212,-0.181,0.749,-10.022,-0.002092,0.000282,-0.000311
1229,1711305181.9765851,17.972129821777344,6.117,0.24,-4.636,0.3199,0.0832,-0.1168,-0.139,0.788,-9.96,-0.001947,-0.00085,0.001128
1230,1711305182.0019138,17.997458457946777,6.116,0.237,-4.639,0.3179,0.0763,-0.1179,-0.242,0.923,-9.947,-0.000585,0.000523,0.002439
1231,1711305182.0266907,18.02223539352417,6.12,0.234,-4.639,0.317,0.0743,-0.1223,-0.151,0.729,-10.088,-0.001636,-0.000681,-0.000979
1232,1711305182.0516307,18.047175407409668,6.12,0.233,-4.64,0.3188,0.0723,-0.1156,-0.066,0.77,-9.972,0.001903,0.000509,0.002286
1233,1711305182.076469,18.07201361656189,6.119,0.233,-4.641,0.319,0.0832,-0.1201,-0.164,0.918,-9.902,0.000465,8.6e-05,0.000989
1234,1711305182.1021855,18.09773015975952,6.12,0.233,-4.638,0.3188,0.0733,-0.1233,-0.043,0.699,-10.072,0.001324,0.002098,1.5e-05
1235,1711305182.1267052,18.122249841690063,6.123,0.234,-4.637,0.317,0.0743,-0.1234,0.006,0.793,-10.044,0.001496,0.000642,0.00177
1236,1711305182.1523979,18.147942543029785,6.126,0.234,-4.637,0.3179,0.0753,-0.1223,-0.056,0.92,-9.929,0.000165,-0.000106,0.000616
1237,1711305182.1774402,18.172984838485718,6.128,0.234,-4.635,0.3189,0.0812,-0.119,0.046,0.683,-10.051,-0.000763,-0.000483,-0.000141
1238,1711305182.2023091,18.197853803634644,6.131,0.235,-4.632,0.3189,0.0763,-0.1233,0.042,0.803,-10.007,0.004059,0.000869,0.002125
1239,1711305182.2272818,18.22282648086548,6.129,0.237,-4.631,0.317,0.0763,-0.1213,0.051,0.959,-9.987,-0.000229,0.000958,0.000705
1240,1711305182.2523835,18.247928142547607,6.131,0.239,-4.628,0.3188,0.0723,-0.1233,0.164,0.697,-10.021,0.001004,0.000898,0.001818
1241,1711305182.277328,18.27287268638611,6.133,0.242,-4.627,0.317,0.0783,-0.1202,0.216,0.852,-10.045,0.00222,0.002178,0.001286
1242,1711305182.3022482,18.29779291152954,6.135,0.244,-4.628,0.3161,0.0763,-0.1246,0.206,0.909,-10.013,-0.001739,0.001503,0.00176
1243,1711305182.3271635,18.322708129882812,6.138,0.248,-4.629,0.3161,0.0763,-0.1224,0.284,0.668,-9.977,-0.002278,0.002821,0.00111
1244,1711305182.3523085,18.347853183746338,6.139,0.252,-4.632,0.317,0.0783,-0.1224,0.313,0.953,-9.973,-0.000212,0.002748,0.001986
1245,1711305182.3769248,18.372469425201416,6.143,0.258,-4.633,0.3152,0.0764,-0.1247,0.379,0.759,-10.0,-0.003183,0.002464,0.00088
1246,1711305182.40234,18.397884607315063,6.145,0.264,-4.634,0.3179,0.0763,-0.1212,0.454,0.757,-9.982,-0.000736,0.00406,0.00217
1247,1711305182.427143,18.422687768936157,6.145,0.269,-4.637,0.3161,0.0783,-0.1225,0.425,0.992,-9.986,-5.3e-05,0.003972,0.001332
1248,1711305182.4524226,18.447967290878296,6.145,0.275,-4.639,0.3179,0.0763,-0.119,0.537,0.729,-9.959,-0.001457,0.003096,-0.000578
1249,1711305182.4768374,18.472382068634033,6.147,0.282,-4.64,0.316,0.0744,-0.1191,0.555,0.841,-10.01,0.000357,0.004663,0.002762
1250,1711305182.502252,18.497796773910522,6.145,0.287,-4.644,0.316,0.0724,-0.1235,0.539,0.951,-10.052,-0.001388,0.004964,0.000922
1251,1711305182.527453,18.522997617721558,6.144,0.293,-4.645,0.317,0.0763,-0.1202,0.678,0.687,-9.863,-0.000584,0.003341,0.001325
1252,1711305182.5522008,18.5477454662323,6.146,0.297,-4.649,0.3161,0.0793,-0.1236,0.579,0.98,-9.957,-0.001849,0.002499,0.001116
1253,1711305182.5770628,18.57260751724243,6.148,0.303,-4.65,0.317,0.0743,-0.1191,0.682,0.713,-10.001,-0.000806,0.002124,0.000875
1254,1711305182.6019742,18.597518920898438,6.147,0.309,-4.649,0.317,0.0763,-0.1213,0.712,0.801,-9.94,0.001006,0.003754,0.00129
1255,1711305182.6268768,18.622421503067017,6.148,0.313,-4.649,0.317,0.0763,-0.1202,0.667,0.999,-10.089,-0.000343,0.002972,0.000773
1256,1711305182.6517925,18.647337198257446,6.146,0.317,-4.649,0.3189,0.0773,-0.1223,0.709,0.721,-9.891,-0.000434,0.001801,-0.000625
1257,1711305182.6766064,18.6721510887146,6.145,0.321,-4.649,0.317,0.0783,-0.118,0.608,0.975,-9.892,0.001334,0.001484,0.00048
1258,1711305182.7018142,18.69735884666443,6.141,0.322,-4.648,0.3189,0.0812,-0.1179,0.679,0.763,-10.042,-0.000505,0.001473,-8.6e-05
1259,1711305182.7274709,18.723015546798706,6.139,0.324,-4.647,0.3179,0.0763,-0.1179,0.666,0.764,-10.002,0.002698,0.001215,0.000331
1260,1711305182.7520192,18.74756383895874,6.135,0.324,-4.646,0.317,0.0763,-0.1191,0.678,0.949,-10.048,2.8e-05,-0.000483,-0.000291
1261,1711305182.777183,18.772727727890015,6.135,0.325,-4.643,0.3179,0.0733,-0.1234,0.739,0.727,-9.897,0.000312,-0.000895,-0.000317
1262,1711305182.8018856,18.797430276870728,6.131,0.325,-4.643,0.3161,0.0773,-0.1213,0.595,0.899,-9.949,0.002224,-0.000633,5.3e-05
1263,1711305182.8269074,18.822452068328857,6.13,0.324,-4.641,0.317,0.0763,-0.1202,0.796,0.766,-10.012,-0.002345,-0.001001,-0.000923
1264,1711305182.8515832,18.84712791442871,6.128,0.325,-4.641,0.3151,0.0744,-0.1192,0.667,0.784,-9.996,0.001759,0.000412,0.000329
1265,1711305182.8766296,18.87217426300049,6.13,0.324,-4.642,0.316,0.0734,-0.118,0.658,0.931,-10.014,-0.001241,-0.001047,-0.000482
1266,1711305182.901704,18.8972487449646,6.13,0.325,-4.641,0.317,0.0783,-0.1202,0.748,0.779,-9.954,0.001128,-0.001625,0.000146
1267,1711305182.926963,18.922507762908936,6.128,0.324,-4.644,0.3151,0.0744,-0.1203,0.606,0.931,-10.069,-0.001347,0.00028,-0.000152
1268,1711305182.9524097,18.947954416275024,6.127,0.324,-4.642,0.3189,0.0812,-0.1146,0.784,0.808,-9.925,-0.002563,-0.001385,0.000972
1269,1711305182.9767756,18.972320318222046,6.125,0.325,-4.644,0.3133,0.0784,-0.1226,0.522,0.88,-9.924,0.001308,0.000892,0.001042
1270,1711305183.0024896,18.998034238815308,6.124,0.325,-4.645,0.3161,0.0763,-0.1158,0.721,0.808,-9.96,-0.00336,-0.000587,-0.000429
1271,1711305183.0269547,19.022499322891235,6.121,0.325,-4.644,0.3171,0.0842,-0.1159,0.667,0.821,-9.967,0.002553,0.00033,0.000695
1272,1711305183.0521863,19.047730922698975,6.119,0.325,-4.646,0.3152,0.0823,-0.1171,0.615,0.9,-10.033,-0.002416,-8.4e-05,0.000765
1273,1711305183.0775216,19.073066234588623,6.117,0.326,-4.645,0.318,0.0783,-0.1168,0.681,0.759,-9.962,0.002124,-0.000638,0.000474
1274,1711305183.1021447,19.097689390182495,6.115,0.327,-4.647,0.3142,0.0784,-0.116,0.645,0.909,-10.101,-0.002313,0.001289,-0.000533
1275,1711305183.1272361,19.122780799865723,6.114,0.328,-4.645,0.3207,0.0742,-0.1166,0.791,0.787,-9.988,-0.000794,-0.00104,0.000443
1276,1711305183.152472,19.148016691207886,6.114,0.328,-4.646,0.3171,0.0832,-0.1148,0.535,0.953,-9.919,0.001051,-0.001009,0.000748
1277,1711305183.1773558,19.172900438308716,6.111,0.328,-4.646,0.3161,0.0803,-0.117,0.758,0.772,-10.056,-0.001779,-0.001915,-0.000152
1278,1711305183.2020931,19.197637796401978,6.109,0.329,-4.647,0.3188,0.0753,-0.1135,0.621,0.935,-9.947,0.000707,0.001672,0.000351
1279,1711305183.2269945,19.22253918647766,6.109,0.329,-4.647,0.317,0.0753,-0.1202,0.636,0.76,-10.014,-0.002173,-0.000274,-0.001075
1280,1711305183.251931,19.247475624084473,6.106,0.33,-4.646,0.3189,0.0822,-0.119,0.668,0.804,-9.959,0.00191,0.001043,0.00093
1281,1711305183.2769825,19.27252721786499,6.101,0.329,-4.648,0.3161,0.0753,-0.118,0.395,0.954,-9.982,-0.003262,-0.000333,3.3e-05
1282,1711305183.3022356,19.29778027534485,6.099,0.328,-4.646,0.317,0.0783,-0.1169,0.311,0.761,-9.979,0.000347,4.7e-05,-0.000928
1283,1711305183.3270392,19.3225839138031,6.099,0.325,-4.646,0.3142,0.0744,-0.1192,0.058,0.877,-9.859,0.001646,-0.002744,-0.000442
1284,1711305183.3522089,19.347753524780273,6.099,0.321,-4.644,0.318,0.0783,-0.119,-0.066,0.722,-9.829,-0.001672,-0.00416,0.000144
1285,1711305183.3787816,19.37432622909546,6.099,0.317,-4.643,0.3179,0.0773,-0.1168,-0.15,0.836,-9.89,0.003255,-0.00143,0.000367
1286,1711305183.4021435,19.397688150405884,6.098,0.311,-4.642,0.3188,0.0753,-0.1135,-0.264,0.709,-9.919,0.00023,-0.004128,0.000207
1287,1711305183.427146,19.422690629959106,6.098,0.306,-4.64,0.3171,0.0803,-0.1191,-0.151,0.772,-9.916,0.003483,-0.003901,0.000151
1288,1711305183.4520519,19.447596549987793,6.097,0.299,-4.639,0.317,0.0773,-0.1147,-0.141,0.856,-10.113,-0.001,-0.002896,-0.001981
1289,1711305183.4779637,19.47350835800171,6.096,0.295,-4.636,0.3151,0.0744,-0.117,0.011,0.877,-10.012,0.002283,-0.003734,-0.001219
1290,1711305183.5018063,19.497350931167603,6.096,0.29,-4.634,0.3161,0.0773,-0.1148,0.037,0.886,-10.116,0.001997,-0.003293,-0.000316
1291,1711305183.5268152,19.52235984802246,6.095,0.286,-4.63,0.3199,0.0842,-0.1135,0.211,0.842,-10.041,-0.000208,-0.004026,-0.001327
1292,1711305183.5519478,19.547492504119873,6.093,0.284,-4.626,0.316,0.0744,-0.118,0.203,0.867,-10.112,0.004732,-0.000418,0.00036
1293,1711305183.5771165,19.57266116142273,6.093,0.283,-4.62,0.318,0.0802,-0.1136,0.158,0.754,-10.014,0.003312,-0.002055,-0.000754
1294,1711305183.6020303,19.597574949264526,6.094,0.284,-4.615,0.317,0.0763,-0.1147,0.253,0.864,-10.053,0.005579,0.001111,0.001045
1295,1711305183.6269138,19.622458457946777,6.094,0.284,-4.61,0.3187,0.0713,-0.1068,0.147,0.819,-10.134,0.000731,0.000206,-1.1e-05
1296,1711305183.6518824,19.647427082061768,6.097,0.285,-4.603,0.3187,0.0693,-0.1123,0.05,0.603,-10.001,0.003602,-0.00068,-0.000529
1297,1711305183.6765635,19.67210817337036,6.098,0.285,-4.598,0.317,0.0793,-0.1092,0.017,0.842,-10.187,-0.000671,0.000852,-0.001145
1298,1711305183.7016487,19.697193384170532,6.098,0.287,-4.59,0.3206,0.0723,-0.11,0.079,0.786,-9.878,0.000367,-0.001288,-0.002105
1299,1711305183.7268803,19.72242498397827,6.098,0.286,-4.585,0.3196,0.0663,-0.1089,-0.204,0.731,-9.915,0.010047,0.001298,-0.002174
1300,1711305183.7518566,19.747401237487793,6.1,0.286,-4.58,0.3196,0.0663,-0.1078,-0.018,0.718,-9.767,0.005556,-0.000467,-0.002701
1301,1711305183.776801,19.772345781326294,6.103,0.285,-4.578,0.3197,0.0713,-0.1145,0.056,0.845,-9.91,0.007479,0.000472,-0.002777
1302,1711305183.8026106,19.798155307769775,6.106,0.286,-4.575,0.3215,0.0673,-0.111,0.073,0.985,-9.888,-0.000124,1e-05,-0.001388
1303,1711305183.8268793,19.822423934936523,6.11,0.289,-4.575,0.3205,0.0663,-0.1165,0.167,0.854,-9.978,0.001589,0.00428,-0.000284
1304,1711305183.8525355,19.848080158233643,6.109,0.292,-4.57,0.3234,0.0712,-0.1087,0.105,0.728,-10.007,0.001201,0.002704,-0.004053
1305,1711305183.8765812,19.87212586402893,6.109,0.298,-4.566,0.3225,0.0742,-0.1132,0.203,0.953,-9.968,-0.000869,0.00258,-0.000919
1306,1711305183.9024985,19.898043155670166,6.111,0.302,-4.563,0.3224,0.0673,-0.1153,0.128,0.601,-9.916,0.003733,0.004733,-0.002291
1307,1711305183.928176,19.923720598220825,6.112,0.307,-4.558,0.3233,0.0662,-0.1098,0.172,0.794,-10.003,0.001269,0.003131,-0.001588
1308,1711305183.9524074,19.947952032089233,6.113,0.311,-4.555,0.3197,0.0713,-0.1123,0.034,1.024,-10.127,-0.002133,0.003402,-0.001951
1309,1711305183.977338,19.972882747650146,6.114,0.315,-4.551,0.3225,0.0732,-0.1121,0.066,0.724,-9.913,-0.000122,0.00156,-0.003656
1310,1711305184.0020664,19.997611045837402,6.114,0.317,-4.549,0.3242,0.0633,-0.1152,-0.001,0.87,-10.1,0.00134,0.001944,-0.003596
1311,1711305184.0276983,20.023242950439453,6.116,0.32,-4.542,0.3233,0.0653,-0.1142,0.051,0.616,-9.914,0.004722,0.001064,-0.0039
1312,1711305184.0523472,20.047891855239868,6.119,0.321,-4.537,0.3223,0.0643,-0.1098,0.073,0.871,-10.073,0.00662,0.003013,-0.003966
1313,1711305184.0773923,20.07293701171875,6.121,0.324,-4.527,0.3252,0.0672,-0.1108,0.041,0.773,-9.999,0.007526,0.001542,-0.00559
1314,1711305184.1022751,20.097819805145264,6.12,0.326,-4.52,0.3215,0.0663,-0.1176,0.071,0.993,-10.067,0.005969,0.001753,-0.00556
1315,1711305184.1282284,20.123773097991943,6.12,0.329,-4.51,0.3243,0.0672,-0.113,0.125,0.704,-9.97,0.004586,0.001223,-0.006748
1316,1711305184.1518831,20.147427797317505,6.119,0.33,-4.506,0.3224,0.0663,-0.1142,0.114,1.03,-10.005,0.005917,0.00244,-0.006062
1317,1711305184.1770735,20.17261815071106,6.117,0.333,-4.499,0.3233,0.0672,-0.1109,0.138,0.714,-9.953,0.00048,2.7e-05,-0.005861
1318,1711305184.201835,20.19737958908081,6.118,0.334,-4.497,0.3187,0.0703,-0.1123,0.123,0.933,-10.002,0.003574,0.002034,-0.003873
1319,1711305184.2268546,20.22239923477173,6.117,0.335,-4.493,0.3233,0.0672,-0.112,0.152,0.634,-9.975,-0.000187,-0.000296,-0.002769
1320,1711305184.2520964,20.24764108657837,6.12,0.337,-4.492,0.3215,0.0693,-0.1099,0.055,0.89,-10.002,0.006633,0.0028,-0.000573
1321,1711305184.2771976,20.27274227142334,6.125,0.337,-4.487,0.3251,0.0652,-0.1075,0.045,0.695,-9.937,0.001953,-0.000646,-0.003076
1322,1711305184.3019743,20.297518968582153,6.126,0.339,-4.483,0.3188,0.0713,-0.1123,0.059,0.91,-9.972,0.006322,0.00178,-0.000299
1323,1711305184.3267894,20.322334051132202,6.13,0.338,-4.475,0.3243,0.0682,-0.1141,-0.02,0.762,-9.924,0.001628,-0.000578,-0.003947
1324,1711305184.3520737,20.347618341445923,6.134,0.339,-4.47,0.3224,0.0673,-0.1131,0.107,0.784,-9.985,0.005776,0.000971,-0.003425
1325,1711305184.3770316,20.372576236724854,6.134,0.339,-4.463,0.3242,0.0662,-0.1141,0.071,0.744,-10.095,0.00443,0.001286,-0.006151
1326,1711305184.4020581,20.397602796554565,6.132,0.341,-4.454,0.3205,0.0663,-0.1132,0.129,0.66,-9.974,0.007723,0.001215,-0.005853
1327,1711305184.4267402,20.422284841537476,6.132,0.342,-4.446,0.3206,0.0673,-0.1198,0.111,0.75,-10.02,0.005269,0.001354,-0.006568
1328,1711305184.4517336,20.447278261184692,6.13,0.344,-4.437,0.3206,0.0693,-0.1177,0.072,0.615,-9.902,0.005849,0.000303,-0.00565
1329,1711305184.4769292,20.472473859786987,6.128,0.345,-4.429,0.3205,0.0653,-0.1187,0.117,0.695,-9.97,0.00674,0.002972,-0.005389
1330,1711305184.5020306,20.497575283050537,6.127,0.346,-4.423,0.3233,0.0643,-0.1185,0.054,0.756,-9.989,0.003974,0.000854,-0.005987
1331,1711305184.5270736,20.522618293762207,6.129,0.348,-4.419,0.3197,0.0693,-0.1133,0.139,0.628,-9.914,0.004633,0.000115,-0.002854
1332,1711305184.5519106,20.547455310821533,6.132,0.349,-4.414,0.3224,0.0692,-0.1143,0.072,0.906,-10.009,0.005417,0.00119,-0.003851
1333,1711305184.5768385,20.572383165359497,6.134,0.351,-4.41,0.3225,0.0712,-0.1154,0.089,0.61,-9.948,0.000211,0.000312,-0.005275
1334,1711305184.6018891,20.5974338054657,6.138,0.352,-4.403,0.3224,0.0683,-0.1131,0.182,0.665,-10.031,0.006424,0.000993,-0.003837
1335,1711305184.6270816,20.622626304626465,6.14,0.353,-4.398,0.3178,0.0654,-0.1167,0.134,0.856,-10.151,0.004595,-0.000131,-0.004821
1336,1711305184.6520448,20.647589445114136,6.138,0.357,-4.391,0.3215,0.0703,-0.111,0.135,0.579,-9.948,0.002154,0.003201,-0.003307
1337,1711305184.6768467,20.672391414642334,6.135,0.359,-4.387,0.3224,0.0653,-0.1164,0.155,0.721,-10.072,0.006838,0.003135,-0.003843
1338,1711305184.7022777,20.697822332382202,6.135,0.363,-4.382,0.3197,0.0713,-0.1156,0.072,0.76,-10.034,0.00526,0.002785,-0.006104
1339,1711305184.726852,20.72239661216736,6.133,0.367,-4.379,0.3215,0.0683,-0.1121,0.024,0.663,-9.842,0.002981,0.002586,-0.003848
1340,1711305184.752222,20.747766733169556,6.133,0.37,-4.379,0.3187,0.0683,-0.1123,0.039,0.863,-9.996,0.003646,0.003237,-0.003486
1341,1711305184.7766545,20.772199153900146,6.134,0.372,-4.378,0.3179,0.0773,-0.1146,0.094,0.848,-9.997,-0.000558,0.000957,-0.002294
1342,1711305184.8024392,20.7979838848114,6.137,0.374,-4.377,0.3206,0.0683,-0.1133,0.103,0.757,-9.969,-0.001378,0.000921,-0.00031
1343,1711305184.8270452,20.822589874267578,6.143,0.376,-4.379,0.3197,0.0703,-0.1144,0.002,0.943,-10.045,-0.00168,0.000919,0.000513
1344,1711305184.8533127,20.848857402801514,6.149,0.378,-4.377,0.316,0.0724,-0.118,0.093,0.695,-10.008,-0.0022,0.000735,-0.000862
1345,1711305184.8774543,20.8729989528656,6.153,0.379,-4.374,0.3216,0.0722,-0.1122,0.101,0.661,-10.003,0.004149,0.000596,-0.000782
1346,1711305184.90246,20.89800477027893,6.158,0.38,-4.374,0.3243,0.0672,-0.1185,0.045,0.879,-10.048,0.00287,0.002282,-0.001748
1347,1711305184.9272556,20.922800302505493,6.165,0.383,-4.37,0.3261,0.0652,-0.1118,0.078,0.702,-9.98,0.000431,0.000365,-0.002153
1348,1711305184.9522839,20.94782853126526,6.17,0.385,-4.367,0.3242,0.0662,-0.1141,0.159,0.739,-10.096,0.005694,0.00149,-0.002335
1349,1711305184.9772835,20.972828149795532,6.173,0.387,-4.359,0.3234,0.0732,-0.1153,0.087,0.769,-10.051,0.004258,0.001481,-0.003167
1350,1711305185.0022945,20.997839212417603,6.175,0.39,-4.349,0.3252,0.0672,-0.1141,0.164,0.685,-9.97,0.006519,0.001091,-0.005633
1351,1711305185.027199,21.022743701934814,6.176,0.392,-4.343,0.3252,0.0652,-0.1173,0.084,0.839,-10.003,0.004104,0.000994,-0.006459
1352,1711305185.051975,21.04751968383789,6.179,0.395,-4.337,0.3261,0.0701,-0.1118,0.108,0.667,-9.931,0.002841,0.0024,-0.006938
1353,1711305185.0768893,21.072433948516846,6.181,0.397,-4.335,0.3261,0.0652,-0.1151,0.1,0.727,-9.998,0.002317,0.002352,-0.005232
1354,1711305185.1021955,21.097740173339844,6.179,0.399,-4.333,0.3289,0.0671,-0.116,0.071,0.788,-10.055,-0.003115,0.000986,-0.007027
1355,1711305185.1269352,21.122479915618896,6.18,0.402,-4.334,0.326,0.0602,-0.1161,0.151,0.764,-9.95,0.000567,0.001259,-0.004557
1356,1711305185.1518784,21.147423028945923,6.182,0.402,-4.335,0.3252,0.0662,-0.1162,0.079,0.867,-10.162,-0.002052,0.001174,-0.006101
1357,1711305185.1783092,21.173853874206543,6.182,0.403,-4.335,0.3289,0.0671,-0.1138,0.139,0.617,-9.975,-0.000403,0.000923,-0.005032
1358,1711305185.202073,21.197617769241333,6.185,0.402,-4.334,0.3261,0.0672,-0.1206,-0.007,0.807,-9.971,0.004422,0.000117,-0.004417
1359,1711305185.2271216,21.222666263580322,6.192,0.399,-4.332,0.3279,0.0671,-0.1106,0.084,0.62,-9.92,0.003572,-0.002948,-0.005188
1360,1711305185.2519693,21.247514009475708,6.196,0.396,-4.329,0.3242,0.0662,-0.1185,0.049,0.782,-10.007,0.010237,-0.000185,-0.005293
1361,1711305185.2772472,21.272791862487793,6.2,0.395,-4.323,0.3279,0.0622,-0.1116,0.038,0.831,-9.937,0.005511,-0.0028,-0.005689
1362,1711305185.3020766,21.297621250152588,6.203,0.394,-4.318,0.3223,0.0633,-0.1142,0.107,0.912,-9.993,0.006803,-0.000195,-0.004172
1363,1711305185.3268807,21.322425365447998,6.204,0.392,-4.311,0.3252,0.0702,-0.1141,0.073,0.853,-10.112,0.000265,-0.001135,-0.005827
1364,1711305185.3519888,21.347533464431763,6.203,0.392,-4.304,0.3225,0.0732,-0.1176,0.197,0.705,-9.982,0.005817,-0.00158,-0.005848
1365,1711305185.377492,21.3730366230011,6.203,0.391,-4.3,0.3215,0.0683,-0.1187,0.148,0.803,-10.09,0.000776,-0.000564,-0.004916
1366,1711305185.4017582,21.397302865982056,6.203,0.391,-4.295,0.3224,0.0673,-0.1153,0.242,0.599,-10.045,0.002834,-0.000788,-0.003228
1367,1711305185.4269693,21.422513961791992,6.205,0.391,-4.295,0.3196,0.0673,-0.1144,0.123,0.724,-10.142,0.000857,8e-05,-0.002459
1368,1711305185.4519126,21.447457313537598,6.203,0.393,-4.292,0.3216,0.0772,-0.1155,0.249,0.691,-9.952,0.000822,0.000267,-0.00337
1369,1711305185.476892,21.472436666488647,6.199,0.391,-4.292,0.3215,0.0712,-0.1176,0.114,0.78,-10.057,0.000479,-0.000883,-0.002725
1370,1711305185.5019996,21.497544288635254,6.201,0.394,-4.285,0.3225,0.0732,-0.1143,0.202,0.547,-9.845,0.002076,-0.001088,-0.004674
1371,1711305185.5267437,21.52228832244873,6.195,0.393,-4.282,0.3188,0.0753,-0.1157,0.102,0.817,-9.987,0.005336,0.000526,-0.006034
1372,1711305185.5518317,21.54737639427185,6.186,0.394,-4.276,0.3215,0.0673,-0.1143,0.173,0.598,-9.879,0.001408,-0.001046,-0.009175
1373,1711305185.576967,21.572511672973633,6.176,0.395,-4.275,0.3187,0.0693,-0.1178,0.099,0.867,-9.96,0.004705,0.001787,-0.009347
1374,1711305185.6015394,21.597084045410156,6.163,0.396,-4.274,0.3206,0.0713,-0.1122,0.083,0.69,-9.931,-0.000554,-0.000374,-0.010774
1375,1711305185.6266754,21.622220039367676,6.147,0.397,-4.28,0.3188,0.0723,-0.1189,0.129,0.874,-9.916,-0.000811,0.001038,-0.011365
1376,1711305185.652257,21.647801637649536,6.132,0.398,-4.284,0.3215,0.0693,-0.1143,0.148,0.814,-10.054,-0.006058,0.000193,-0.01333
1377,1711305185.6786213,21.674165964126587,6.121,0.4,-4.29,0.3188,0.0693,-0.1233,0.155,0.802,-9.946,-0.00042,0.001357,-0.01088
1378,1711305185.7023172,21.697861909866333,6.105,0.404,-4.293,0.3207,0.0752,-0.1144,0.174,0.764,-10.087,-0.006975,0.003166,-0.01016
1379,1711305185.7270684,21.722613096237183,6.094,0.408,-4.295,0.3179,0.0763,-0.1146,0.323,0.664,-9.983,-0.001273,0.002849,-0.007809
1380,1711305185.7524126,21.747957229614258,6.083,0.412,-4.294,0.3198,0.0762,-0.1156,0.31,0.843,-10.151,-0.002665,0.003489,-0.008045
1381,1711305185.7773979,21.772942543029785,6.072,0.418,-4.29,0.3197,0.0723,-0.1134,0.442,0.632,-10.049,0.000798,0.003747,-0.009
1382,1711305185.8023074,21.797852039337158,6.062,0.422,-4.286,0.3198,0.0782,-0.1156,0.285,0.898,-10.112,-0.000861,0.004875,-0.008703
1383,1711305185.8274822,21.82302689552307,6.049,0.427,-4.28,0.3243,0.0692,-0.1163,0.567,0.496,-10.008,-0.001454,0.003073,-0.012244
1384,1711305185.8523743,21.84791898727417,6.033,0.43,-4.275,0.3207,0.0742,-0.1177,0.334,0.68,-10.015,0.001846,0.004119,-0.013315
1385,1711305185.8772702,21.872814893722534,6.013,0.433,-4.271,0.3207,0.0752,-0.1188,0.502,0.341,-9.936,-0.000207,0.001253,-0.019522
1386,1711305185.9019885,21.897533178329468,5.988,0.435,-4.27,0.3206,0.0723,-0.1155,0.429,0.429,-9.953,0.00386,0.003585,-0.019305
1387,1711305185.927256,21.92280077934265,5.96,0.437,-4.266,0.3244,0.0751,-0.112,0.452,0.25,-9.983,0.00584,0.00192,-0.024371
1388,1711305185.9522595,21.94780421257019,5.927,0.44,-4.264,0.3197,0.0723,-0.1156,0.562,0.509,-9.941,0.0091,0.002972,-0.025699
1389,1711305185.9772089,21.972753524780273,5.891,0.442,-4.263,0.3188,0.0723,-0.1134,0.426,0.659,-10.045,0.00667,0.003785,-0.029566
1390,1711305186.0022252,21.997769832611084,5.854,0.447,-4.258,0.3197,0.0723,-0.1178,0.547,0.685,-10.0,0.007733,0.003042,-0.027692
1391,1711305186.0269206,22.022465229034424,5.814,0.45,-4.258,0.3188,0.0753,-0.1135,0.384,1.02,-10.112,-0.002048,0.004901,-0.029973
1392,1711305186.0520759,22.04762053489685,5.768,0.454,-4.255,0.3226,0.0811,-0.11,0.602,0.568,-9.995,-0.002329,0.003163,-0.030557
1393,1711305186.0771244,22.07266902923584,5.723,0.457,-4.254,0.3226,0.0772,-0.1133,0.348,0.804,-9.978,-0.003213,0.006595,-0.032559
1394,1711305186.102173,22.097717761993408,5.676,0.46,-4.251,0.3225,0.0722,-0.1066,0.534,0.307,-9.952,-0.002264,0.003548,-0.035114
1395,1711305186.1270046,22.122549295425415,5.629,0.464,-4.249,0.3207,0.0733,-0.121,0.427,0.472,-9.974,0.004148,0.006281,-0.038005
1396,1711305186.1520684,22.147613048553467,5.573,0.467,-4.244,0.3198,0.0782,-0.1123,0.409,0.466,-10.057,0.00467,0.005055,-0.041213
1397,1711305186.1850576,22.180602312088013,5.516,0.472,-4.241,0.3216,0.0742,-0.11,0.566,0.506,-9.988,0.004817,0.005299,-0.042714
1398,1711305186.2016294,22.197174072265625,5.454,0.474,-4.237,0.3189,0.0822,-0.1103,0.369,0.785,-10.126,0.004631,0.003296,-0.047881
1399,1711305186.2265892,22.22213387489319,5.389,0.477,-4.233,0.3226,0.0831,-0.1089,0.622,0.64,-9.983,0.001712,0.00462,-0.048254
1400,1711305186.2520173,22.247561931610107,5.317,0.479,-4.231,0.3226,0.0772,-0.1133,0.329,0.888,-9.909,0.001106,0.005702,-0.05064
1401,1711305186.2780685,22.273613214492798,5.245,0.483,-4.227,0.3225,0.0752,-0.1143,0.498,0.51,-9.931,-0.002074,0.004644,-0.054728
1402,1711305186.3020818,22.297626495361328,5.162,0.485,-4.226,0.3182,0.0921,-0.1291,0.488,0.57,-10.059,0.001546,0.005489,-0.055382
1403,1711305186.3266273,22.322171926498413,5.077,0.487,-4.225,0.3153,0.0853,-0.1193,0.382,0.517,-10.124,0.001044,0.004445,-0.059236
1404,1711305186.351881,22.34742569923401,4.99,0.49,-4.221,0.3217,0.0821,-0.1199,0.507,0.482,-9.903,0.00762,0.005191,-0.061528
1405,1711305186.3768334,22.37237811088562,4.9,0.491,-4.224,0.3171,0.0832,-0.1214,0.239,0.89,-9.983,-0.002698,0.003943,-0.063009
1406,1711305186.4017835,22.39732813835144,4.811,0.493,-4.223,0.319,0.0881,-0.1169,0.484,0.597,-9.889,-0.004058,0.005493,-0.064729
1407,1711305186.4266558,22.422200441360474,4.716,0.495,-4.227,0.3181,0.0901,-0.1159,0.352,0.657,-9.916,-0.003771,0.006337,-0.065099
1408,1711305186.4515805,22.44712519645691,4.621,0.496,-4.227,0.319,0.0881,-0.1147,0.324,0.527,-10.081,-0.0005,0.004078,-0.068651
1409,1711305186.4766154,22.47216010093689,4.521,0.497,-4.228,0.3198,0.0802,-0.1157,0.46,0.439,-10.039,0.003194,0.004731,-0.067738
1410,1711305186.5022328,22.497777462005615,4.421,0.498,-4.228,0.3171,0.0852,-0.1148,0.336,0.854,-10.117,0.001139,0.005555,-0.071631
1411,1711305186.5267742,22.522318840026855,4.32,0.5,-4.229,0.3218,0.0851,-0.1134,0.487,0.63,-9.871,-0.003787,0.004376,-0.072946
1412,1711305186.5522215,22.54776620864868,4.214,0.503,-4.227,0.318,0.0812,-0.1158,0.358,0.706,-9.927,0.001787,0.006169,-0.075373
1413,1711305186.5782835,22.57382822036743,4.106,0.505,-4.223,0.3208,0.0841,-0.1123,0.449,0.509,-10.037,-0.001493,0.005794,-0.080135
1414,1711305186.6021497,22.597694396972656,3.993,0.509,-4.22,0.3208,0.0832,-0.1167,0.519,0.44,-10.05,0.002911,0.006083,-0.080684
1415,1711305186.6271667,22.622711420059204,3.875,0.512,-4.219,0.318,0.0842,-0.1147,0.401,0.775,-10.018,-0.000404,0.007205,-0.084898
1416,1711305186.652255,22.647799730300903,3.756,0.515,-4.218,0.319,0.0842,-0.1092,0.521,0.573,-9.883,-0.002646,0.006312,-0.088234
1417,1711305186.6771235,22.67266821861267,3.633,0.52,-4.221,0.3208,0.0841,-0.1047,0.377,0.642,-9.935,-0.003577,0.009284,-0.090059
1418,1711305186.702077,22.6976215839386,3.507,0.523,-4.223,0.3208,0.0851,-0.108,0.438,0.581,-10.104,-0.003521,0.007032,-0.093982
1419,1711305186.7273629,22.722907543182373,3.383,0.527,-4.22,0.3226,0.0811,-0.1056,0.518,0.477,-9.956,0.004176,0.006999,-0.092098
1420,1711305186.7522953,22.74783992767334,3.256,0.53,-4.219,0.3198,0.0822,-0.1069,0.411,0.759,-10.001,0.003608,0.007864,-0.093277
1421,1711305186.7780187,22.773563385009766,3.124,0.534,-4.214,0.3208,0.0861,-0.1091,0.522,0.572,-9.986,2.4e-05,0.007221,-0.097983
1422,1711305186.8023636,22.797908306121826,2.99,0.539,-4.208,0.3217,0.0841,-0.1068,0.522,0.595,-10.019,0.004351,0.008519,-0.0989
1423,1711305186.8290732,22.824617862701416,2.852,0.542,-4.201,0.3172,0.0892,-0.1115,0.474,0.691,-10.055,0.004452,0.008145,-0.100878
1424,1711305186.8522747,22.847819328308105,2.709,0.547,-4.191,0.3181,0.0862,-0.1049,0.552,0.479,-9.905,0.00387,0.007669,-0.107207
1425,1711305186.8772295,22.872774124145508,2.562,0.551,-4.182,0.319,0.0881,-0.1114,0.494,0.636,-10.023,0.009423,0.009531,-0.107561
1426,1711305186.90218,22.897724628448486,2.411,0.555,-4.173,0.3162,0.0852,-0.1116,0.444,0.712,-10.07,0.003521,0.008457,-0.112092
1427,1711305186.926865,22.922409772872925,2.256,0.558,-4.164,0.32,0.0911,-0.1048,0.496,0.398,-9.943,0.004047,0.00834,-0.113845
1428,1711305186.9522517,22.94779634475708,2.098,0.56,-4.155,0.318,0.0852,-0.1071,0.353,0.543,-9.969,0.007717,0.008489,-0.116093
1429,1711305186.9771514,22.97269606590271,1.938,0.561,-4.147,0.319,0.0891,-0.1037,0.436,0.665,-10.096,0.005334,0.006763,-0.117533
