seq,stamp,elapsed_time,yaw,pitch,roll,mag_x,mag_y,mag_z,accel_x,accel_y,accel_z,gyro_x,gyro_y,gyro_z
5305,1711208873.6416805,0,149.698,-10.169,-12.844,-0.4913,-0.2843,-0.0376,-1.776,2.163,-9.57,-0.000852,0.000774,0.00063
5306,1711208873.6668406,0.02516007423400879,149.699,-10.168,-12.843,-0.4922,-0.2823,-0.0432,-1.767,2.195,-9.54,0.000617,0.000255,0.00073
5307,1711208873.6918814,0.0502009391784668,149.699,-10.169,-12.842,-0.4922,-0.2783,-0.041,-1.743,2.184,-9.535,-0.001888,0.00092,0.000881
5308,1711208873.7166467,0.0749661922454834,149.701,-10.17,-12.842,-0.4931,-0.2803,-0.0389,-1.766,2.197,-9.573,-0.001055,0.000677,0.001376
5309,1711208873.7427459,0.10106539726257324,149.701,-10.17,-12.84,-0.4932,-0.2862,-0.0432,-1.76,2.171,-9.559,0.000239,-0.000943,0.000667
5310,1711208873.7663636,0.12468314170837402,149.703,-10.17,-12.839,-0.4923,-0.2843,-0.0388,-1.771,2.175,-9.603,0.002105,-0.000561,-0.000907
5311,1711208873.791331,0.14965057373046875,149.702,-10.169,-12.841,-0.4922,-0.2823,-0.0421,-1.758,2.18,-9.532,-0.000552,-0.000791,-0.000913
5312,1711208873.8163464,0.1746659278869629,149.702,-10.168,-12.843,-0.4922,-0.2843,-0.0454,-1.75,2.184,-9.549,-0.001065,-5.5e-05,-1.2e-05
5313,1711208873.8429136,0.2012331485748291,149.702,-10.168,-12.843,-0.4941,-0.2832,-0.0411,-1.766,2.187,-9.539,-0.001292,0.000375,-7.3e-05
5314,1711208873.8662624,0.22458195686340332,149.703,-10.168,-12.844,-0.4903,-0.2794,-0.042,-1.78,2.156,-9.528,-0.001614,0.001569,-0.000385
5315,1711208873.8923714,0.25069093704223633,149.701,-10.169,-12.844,-0.4923,-0.2853,-0.041,-1.763,2.211,-9.555,-0.001107,0.000739,-0.000547
5316,1711208873.9184313,0.2767508029937744,149.698,-10.169,-12.847,-0.4914,-0.2863,-0.0387,-1.767,2.199,-9.553,-0.001779,7.1e-05,0.001765
5317,1711208873.943443,0.30176258087158203,149.699,-10.169,-12.847,-0.4923,-0.2863,-0.0453,-1.731,2.201,-9.547,-0.000155,0.001117,-0.000741
5318,1711208873.9663365,0.32465600967407227,149.699,-10.168,-12.847,-0.4913,-0.2803,-0.0399,-1.749,2.176,-9.549,-0.001134,0.000236,7.4e-05
5319,1711208873.9945884,0.3529078960418701,149.699,-10.169,-12.847,-0.4931,-0.2823,-0.0454,-1.763,2.182,-9.543,0.002239,-0.001341,-0.000309
5320,1711208874.016203,0.37452244758605957,149.699,-10.169,-12.848,-0.4886,-0.2883,-0.0418,-1.767,2.194,-9.558,0.001651,-0.000405,-0.000163
5321,1711208874.042057,0.400376558303833,149.7,-10.17,-12.849,-0.4932,-0.2843,-0.0487,-1.747,2.183,-9.551,-0.000544,-0.000767,0.000118
5322,1711208874.066132,0.4244515895843506,149.702,-10.17,-12.848,-0.4922,-0.2803,-0.0443,-1.751,2.204,-9.541,0.000798,0.001283,0.000215
5323,1711208874.0931883,0.4515078067779541,149.704,-10.169,-12.847,-0.4913,-0.2823,-0.042,-1.764,2.183,-9.559,0.003106,-0.001648,-8e-05
5324,1711208874.1161282,0.47444772720336914,149.702,-10.17,-12.846,-0.4931,-0.2813,-0.0422,-1.79,2.182,-9.554,-0.000429,-0.000478,0.001421
5325,1711208874.1420174,0.5003368854522705,149.702,-10.17,-12.845,-0.4914,-0.2873,-0.0442,-1.763,2.161,-9.543,-0.001242,-0.000416,-0.000412
5326,1711208874.1665006,0.52482008934021,149.702,-10.171,-12.847,-0.4922,-0.2833,-0.0432,-1.748,2.181,-9.544,-0.001478,-0.000219,0.000535
5327,1711208874.1919627,0.5502822399139404,149.703,-10.17,-12.847,-0.4893,-0.2744,-0.0409,-1.762,2.194,-9.531,-0.000376,0.000967,-0.00026
5328,1711208874.217207,0.5755264759063721,149.704,-10.17,-12.848,-0.4904,-0.2843,-0.043,-1.771,2.188,-9.547,-0.004756,0.001858,0.00093
5329,1711208874.2421985,0.600517988204956,149.704,-10.17,-12.848,-0.495,-0.2842,-0.0444,-1.768,2.153,-9.562,-0.002544,0.001692,-0.000649
5330,1711208874.2668762,0.6251957416534424,149.707,-10.171,-12.847,-0.4932,-0.2843,-0.0399,-1.769,2.16,-9.562,-0.003717,0.002398,0.000425
5331,1711208874.2919052,0.6502246856689453,149.705,-10.171,-12.847,-0.4941,-0.2832,-0.0444,-1.773,2.196,-9.539,-0.003388,0.00164,0.001187
5332,1711208874.3171287,0.6754481792449951,149.704,-10.172,-12.849,-0.4931,-0.2823,-0.0432,-1.754,2.188,-9.564,-0.003684,0.002672,0.001183
5333,1711208874.3418632,0.7001826763153076,149.705,-10.171,-12.849,-0.4913,-0.2813,-0.0431,-1.741,2.188,-9.551,-0.00347,0.002269,-0.001427
5334,1711208874.366812,0.7251315116882324,149.707,-10.172,-12.85,-0.4913,-0.2833,-0.0464,-1.755,2.195,-9.503,-0.00191,0.002103,-0.000178
5335,1711208874.394162,0.7524814605712891,149.707,-10.171,-12.848,-0.4922,-0.2823,-0.0388,-1.781,2.168,-9.56,0.001781,0.000623,0.000468
5336,1711208874.4169328,0.7752523422241211,149.706,-10.17,-12.848,-0.4922,-0.2833,-0.041,-1.76,2.186,-9.553,0.000431,0.000209,-0.000802
5337,1711208874.4436417,0.8019611835479736,149.706,-10.169,-12.849,-0.4912,-0.2764,-0.0443,-1.772,2.201,-9.528,0.00187,-0.000412,0.001039
5338,1711208874.4667456,0.8250651359558105,149.709,-10.17,-12.849,-0.4931,-0.2813,-0.0411,-1.765,2.177,-9.528,0.001301,-0.001452,-6.9e-05
5339,1711208874.4925075,0.8508269786834717,149.711,-10.17,-12.848,-0.4904,-0.2833,-0.0441,-1.794,2.183,-9.596,0.002373,-0.000367,-3e-05
5340,1711208874.5169356,0.8752551078796387,149.711,-10.17,-12.848,-0.4923,-0.2843,-0.0421,-1.758,2.194,-9.556,0.000837,0.000199,1.8e-05
5341,1711208874.5417309,0.9000504016876221,149.711,-10.17,-12.848,-0.4941,-0.2813,-0.0433,-1.763,2.2,-9.547,-0.000608,0.001113,-0.000273
5342,1711208874.5666716,0.9249911308288574,149.713,-10.17,-12.848,-0.4941,-0.2852,-0.0444,-1.735,2.177,-9.551,-0.000573,-0.000687,-0.000363
5343,1711208874.592078,0.9503974914550781,149.712,-10.169,-12.849,-0.494,-0.2813,-0.0444,-1.778,2.187,-9.56,0.001158,0.001119,0.0004
5344,1711208874.6169107,0.9752302169799805,149.71,-10.169,-12.848,-0.4914,-0.2863,-0.0431,-1.768,2.19,-9.542,0.001904,-0.000354,-0.000222
5345,1711208874.6418548,1.0001742839813232,149.713,-10.169,-12.847,-0.4941,-0.2823,-0.0411,-1.767,2.161,-9.531,-0.001199,0.00112,0.000207
5346,1711208874.6667387,1.0250582695007324,149.716,-10.168,-12.846,-0.4923,-0.2873,-0.042,-1.748,2.188,-9.585,-0.000917,0.000999,0.000145
5347,1711208874.691745,1.0500645637512207,149.715,-10.167,-12.846,-0.4922,-0.2833,-0.0476,-1.782,2.202,-9.527,0.000341,0.000892,0.000156
5348,1711208874.7165613,1.074880838394165,149.717,-10.168,-12.847,-0.4894,-0.2814,-0.0386,-1.762,2.198,-9.553,0.000437,-0.001233,-0.001043
5349,1711208874.7416136,1.09993314743042,149.721,-10.167,-12.847,-0.4949,-0.2793,-0.0467,-1.755,2.18,-9.547,-0.000327,0.001158,0.00046
5350,1711208874.7669644,1.12528395652771,149.723,-10.167,-12.848,-0.4932,-0.2852,-0.041,-1.751,2.167,-9.568,-8.4e-05,0.001008,0.000921
5351,1711208874.7917902,1.1501097679138184,149.721,-10.168,-12.847,-0.495,-0.2822,-0.0412,-1.736,2.161,-9.57,-0.000317,-0.000422,-1.8e-05
5352,1711208874.8168225,1.1751420497894287,149.721,-10.167,-12.845,-0.4912,-0.2784,-0.041,-1.756,2.167,-9.523,4.8e-05,0.001856,0.001738
5353,1711208874.8415458,1.1998653411865234,149.722,-10.167,-12.848,-0.4913,-0.2813,-0.042,-1.779,2.191,-9.555,-0.002353,0.000657,-0.001147
5354,1711208874.8665287,1.2248482704162598,149.723,-10.167,-12.849,-0.4932,-0.2852,-0.0454,-1.742,2.188,-9.556,0.000939,-0.000376,0.001124
5355,1711208874.8916023,1.2499217987060547,149.726,-10.169,-12.851,-0.4959,-0.2832,-0.0423,-1.793,2.183,-9.535,0.001048,-0.000598,-0.000232
5356,1711208874.9168284,1.2751479148864746,149.727,-10.169,-12.852,-0.4942,-0.2892,-0.0443,-1.746,2.183,-9.551,-0.00016,0.000207,-0.000411
5357,1711208874.9459288,1.304248332977295,149.725,-10.171,-12.85,-0.4931,-0.2813,-0.0465,-1.778,2.178,-9.527,0.000839,0.000212,-0.001426
5358,1711208874.9664602,1.324779748916626,149.728,-10.17,-12.852,-0.4912,-0.2744,-0.0388,-1.749,2.187,-9.538,-0.001728,-0.000587,0.000923
5359,1711208874.9925094,1.3508288860321045,149.727,-10.17,-12.853,-0.4941,-0.2852,-0.0389,-1.739,2.2,-9.553,0.00019,0.000634,-9.2e-05
5360,1711208875.0164273,1.3747467994689941,149.728,-10.17,-12.855,-0.4912,-0.2774,-0.0443,-1.777,2.19,-9.563,-0.001366,0.000332,-0.000688
5361,1711208875.0439045,1.402224063873291,149.732,-10.172,-12.856,-0.4941,-0.2832,-0.0411,-1.776,2.198,-9.526,-0.000154,0.000822,0.000245
5362,1711208875.0664623,1.4247817993164062,149.732,-10.172,-12.856,-0.4931,-0.2793,-0.0433,-1.768,2.185,-9.508,-0.001142,0.000948,0.00128
5363,1711208875.0920596,1.4503791332244873,149.735,-10.172,-12.855,-0.4932,-0.2843,-0.0432,-1.757,2.183,-9.58,0.000773,0.000556,0.001516
5364,1711208875.1163516,1.4746711254119873,149.735,-10.173,-12.855,-0.4922,-0.2793,-0.0443,-1.743,2.202,-9.575,0.00213,0.000317,0.00017
5365,1711208875.141397,1.4997165203094482,149.735,-10.173,-12.857,-0.494,-0.2793,-0.04,-1.754,2.191,-9.563,-0.000578,0.001157,-0.000406
5366,1711208875.166347,1.5246665477752686,149.732,-10.172,-12.857,-0.4912,-0.2784,-0.0388,-1.739,2.177,-9.563,-0.000583,0.000342,-0.000626
5367,1711208875.1915443,1.5498638153076172,149.734,-10.171,-12.857,-0.4922,-0.2823,-0.0443,-1.767,2.178,-9.568,0.000942,-0.000651,-0.000875
5368,1711208875.2162883,1.5746078491210938,149.736,-10.171,-12.856,-0.4904,-0.2863,-0.0397,-1.735,2.157,-9.559,0.002563,-0.000139,-0.001738
5369,1711208875.2427087,1.6010282039642334,149.734,-10.172,-12.855,-0.4932,-0.2862,-0.0443,-1.758,2.209,-9.559,0.002025,-0.001329,0.000393
5370,1711208875.266287,1.6246066093444824,149.732,-10.173,-12.857,-0.4913,-0.2843,-0.0365,-1.773,2.175,-9.539,0.001202,0.00109,-0.000837
5371,1711208875.2916417,1.649961233139038,149.734,-10.173,-12.855,-0.4931,-0.2793,-0.052,-1.773,2.184,-9.573,0.001421,0.000885,3.9e-05
5372,1711208875.3162568,1.6745762825012207,149.733,-10.172,-12.854,-0.4913,-0.2823,-0.0398,-1.769,2.186,-9.563,0.002469,-0.000491,-0.001751
5373,1711208875.341301,1.6996204853057861,149.733,-10.171,-12.855,-0.4922,-0.2803,-0.0421,-1.758,2.187,-9.56,0.004015,-0.000133,0.000104
5374,1711208875.3662438,1.7245633602142334,149.735,-10.171,-12.854,-0.4922,-0.2793,-0.0399,-1.759,2.186,-9.55,0.002871,-0.000785,-0.001338
5375,1711208875.3913095,1.749629020690918,149.735,-10.171,-12.854,-0.4932,-0.2882,-0.0454,-1.756,2.17,-9.547,0.001361,0.000447,-0.000896
5376,1711208875.4162297,1.7745492458343506,149.739,-10.172,-12.854,-0.4921,-0.2754,-0.0422,-1.779,2.182,-9.558,0.001604,-0.000416,-0.00096
5377,1711208875.4445076,1.8028271198272705,149.739,-10.171,-12.852,-0.4941,-0.2862,-0.0433,-1.766,2.173,-9.542,0.001693,-0.00121,-1.6e-05
5378,1711208875.4668717,1.8251912593841553,149.737,-10.171,-12.853,-0.4903,-0.2764,-0.0387,-1.75,2.21,-9.561,0.000543,0.000425,0.000738
5379,1711208875.4925609,1.8508803844451904,149.737,-10.169,-12.852,-0.4922,-0.2783,-0.0454,-1.75,2.161,-9.576,-0.001,0.000944,0.000169
5380,1711208875.516343,1.8746626377105713,149.736,-10.17,-12.853,-0.4922,-0.2813,-0.041,-1.768,2.198,-9.559,0.000472,0.001957,8.9e-05
5381,1711208875.542437,1.900756597518921,149.734,-10.169,-12.852,-0.4913,-0.2833,-0.0431,-1.759,2.164,-9.557,0.00067,0.001744,-0.000405
5382,1711208875.5691679,1.9274873733520508,149.735,-10.168,-12.852,-0.4922,-0.2823,-0.0465,-1.757,2.182,-9.543,-0.000551,0.000473,-0.000775
5383,1711208875.5949504,1.9532699584960938,149.734,-10.169,-12.852,-0.4914,-0.2873,-0.0387,-1.738,2.189,-9.529,0.001596,-0.000754,0.000506
5384,1711208875.6166077,1.9749271869659424,149.733,-10.169,-12.852,-0.4904,-0.2814,-0.0398,-1.769,2.182,-9.569,0.002399,-0.001544,0.000493
5385,1711208875.6434915,2.0018110275268555,149.732,-10.171,-12.853,-0.4922,-0.2833,-0.0399,-1.74,2.185,-9.572,0.001476,-0.000775,-0.000993
5386,1711208875.6661367,2.024456262588501,149.731,-10.169,-12.852,-0.4922,-0.2813,-0.0432,-1.759,2.171,-9.567,-9.4e-05,0.00086,-0.000174
5387,1711208875.6922617,2.050581216812134,149.734,-10.167,-12.852,-0.4922,-0.2833,-0.0388,-1.748,2.182,-9.524,-0.0017,0.001687,2e-05
5388,1711208875.7164183,2.074737787246704,149.734,-10.167,-12.852,-0.4923,-0.2843,-0.0421,-1.763,2.191,-9.584,-0.0019,0.001586,-0.000472
5389,1711208875.74216,2.1004796028137207,149.735,-10.168,-12.852,-0.4922,-0.2833,-0.0476,-1.78,2.198,-9.557,0.000133,-0.000508,-1.2e-05
5390,1711208875.7669055,2.125225067138672,149.733,-10.169,-12.853,-0.4894,-0.2774,-0.042,-1.756,2.177,-9.541,-0.001132,0.002449,0.001035
5391,1711208875.7921863,2.150505781173706,149.733,-10.17,-12.851,-0.4912,-0.2794,-0.0475,-1.745,2.185,-9.569,-0.001057,0.00149,0.000708
5392,1711208875.8168974,2.1752169132232666,149.73,-10.17,-12.85,-0.4923,-0.2843,-0.0377,-1.748,2.196,-9.577,0.000613,0.000497,-0.00046
5393,1711208875.8489966,2.2073161602020264,149.733,-10.17,-12.847,-0.4921,-0.2774,-0.0399,-1.739,2.171,-9.588,0.002446,-0.000736,-0.000592
5394,1711208875.8668144,2.2251338958740234,149.735,-10.17,-12.847,-0.4913,-0.2813,-0.0409,-1.781,2.187,-9.554,0.000345,8.2e-05,-0.000577
5395,1711208875.8918223,2.2501418590545654,149.736,-10.171,-12.848,-0.4913,-0.2823,-0.0453,-1.756,2.186,-9.532,-0.000713,0.002837,-0.000419
5396,1711208875.916787,2.275106430053711,149.735,-10.171,-12.851,-0.4903,-0.2784,-0.0442,-1.769,2.216,-9.531,-0.001446,0.00122,-0.000106
5397,1711208875.9433658,2.301685333251953,149.734,-10.17,-12.85,-0.4912,-0.2774,-0.0421,-1.75,2.194,-9.572,0.000182,0.000653,-0.000238
5398,1711208875.9667451,2.3250646591186523,149.732,-10.17,-12.849,-0.4923,-0.2853,-0.0366,-1.771,2.16,-9.571,-0.000671,0.000783,-0.000387
5399,1711208875.994547,2.3528664112091064,149.73,-10.171,-12.849,-0.4913,-0.2833,-0.042,-1.775,2.169,-9.526,-0.002474,0.001212,-0.000683
5400,1711208876.0169044,2.3752238750457764,149.728,-10.171,-12.849,-0.4923,-0.2853,-0.0377,-1.768,2.213,-9.534,-0.002161,0.002304,9.6e-05
5401,1711208876.0432847,2.401604175567627,149.729,-10.171,-12.85,-0.4894,-0.2804,-0.043,-1.758,2.174,-9.527,-0.000201,-0.000294,-0.000437
5402,1711208876.0670793,2.425398826599121,149.728,-10.17,-12.85,-0.4914,-0.2873,-0.0387,-1.745,2.181,-9.572,0.000706,-0.000389,-0.000221
5403,1711208876.0925317,2.4508512020111084,149.726,-10.171,-12.849,-0.4905,-0.2903,-0.0419,-1.778,2.171,-9.554,0.002436,-0.000546,0.000571
5404,1711208876.1170328,2.4753522872924805,149.723,-10.172,-12.85,-0.4894,-0.2794,-0.0376,-1.777,2.185,-9.552,-2.1e-05,0.000446,-0.001414
5405,1711208876.1420352,2.500354766845703,149.722,-10.172,-12.849,-0.4904,-0.2853,-0.0419,-1.738,2.195,-9.563,0.002217,0.000657,-0.000479
5406,1711208876.16658,2.524899482727051,149.72,-10.171,-12.85,-0.4905,-0.2883,-0.0408,-1.729,2.179,-9.551,0.001181,-0.00064,-0.001144
5407,1711208876.1940167,2.5523362159729004,149.717,-10.171,-12.851,-0.4914,-0.2883,-0.042,-1.792,2.182,-9.516,0.001231,-0.001386,-0.000688
5408,1711208876.2169282,2.5752477645874023,149.718,-10.172,-12.852,-0.4895,-0.2824,-0.0375,-1.768,2.175,-9.541,-0.000427,0.000329,0.001139
5409,1711208876.2435472,2.6018667221069336,149.719,-10.173,-12.852,-0.4913,-0.2843,-0.0442,-1.76,2.185,-9.535,-0.000528,0.000885,-0.000251
5410,1711208876.2665286,2.6248481273651123,149.718,-10.173,-12.852,-0.4922,-0.2833,-0.0443,-1.755,2.191,-9.569,0.001609,-0.00131,0.001185
5411,1711208876.2917323,2.6500518321990967,149.715,-10.171,-12.852,-0.4904,-0.2823,-0.0387,-1.75,2.184,-9.551,-0.000301,0.000856,0.001223
5412,1711208876.3169086,2.6752281188964844,149.713,-10.172,-12.854,-0.4913,-0.2843,-0.0398,-1.764,2.194,-9.546,-0.001536,-0.000425,0.00036
5413,1711208876.3423986,2.7007181644439697,149.714,-10.173,-12.856,-0.4914,-0.2893,-0.0398,-1.762,2.184,-9.515,-2.8e-05,0.001189,0.000608
5414,1711208876.3668458,2.725165367126465,149.711,-10.174,-12.854,-0.4913,-0.2813,-0.0398,-1.763,2.172,-9.547,0.002227,-0.000564,-0.000349
5415,1711208876.3929262,2.7512457370758057,149.712,-10.173,-12.853,-0.4895,-0.2834,-0.0397,-1.769,2.157,-9.549,0.001137,-0.000852,0.001056
5416,1711208876.4167452,2.775064706802368,149.709,-10.172,-12.852,-0.4904,-0.2843,-0.0387,-1.742,2.191,-9.539,0.000283,-0.000835,-0.000433
5417,1711208876.4419136,2.8002331256866455,149.709,-10.172,-12.855,-0.4904,-0.2843,-0.0419,-1.771,2.205,-9.546,0.000291,0.000117,0.000513
5418,1711208876.4664676,2.824787139892578,149.708,-10.172,-12.857,-0.4895,-0.2834,-0.0353,-1.757,2.201,-9.543,0.000528,0.001219,5e-06
5419,1711208876.4916646,2.8499841690063477,149.71,-10.173,-12.858,-0.4941,-0.2823,-0.04,-1.763,2.177,-9.554,-0.000313,-4.5e-05,0.000711
5420,1711208876.5167935,2.875113010406494,149.709,-10.171,-12.856,-0.4932,-0.2833,-0.0421,-1.755,2.173,-9.536,-0.001491,0.001417,0.000415
5421,1711208876.5416045,2.8999240398406982,149.707,-10.172,-12.856,-0.4904,-0.2814,-0.0409,-1.746,2.204,-9.553,-0.000487,0.001486,0.000288
5422,1711208876.5664673,2.9247868061065674,149.705,-10.171,-12.858,-0.4876,-0.2804,-0.0374,-1.78,2.189,-9.559,-9.9e-05,0.000485,-0.000259
5423,1711208876.5915542,2.949873685836792,149.705,-10.172,-12.859,-0.4912,-0.2794,-0.0432,-1.75,2.206,-9.556,-0.000782,0.000753,0.000907
5424,1711208876.6166644,2.9749839305877686,149.706,-10.173,-12.862,-0.4923,-0.2853,-0.041,-1.766,2.205,-9.545,0.000515,-1.5e-05,-0.000933
5425,1711208876.641911,3.000230550765991,149.705,-10.172,-12.861,-0.4931,-0.2823,-0.0432,-1.77,2.162,-9.541,-0.003039,0.000675,0.001656
5426,1711208876.6664014,3.0247209072113037,149.703,-10.173,-12.861,-0.4895,-0.2834,-0.0408,-1.744,2.193,-9.555,0.000207,0.00013,0.000455
5427,1711208876.6915689,3.0498883724212646,149.705,-10.173,-12.86,-0.4941,-0.2832,-0.0455,-1.77,2.187,-9.56,0.000822,0.000398,0.00027
5428,1711208876.7164302,3.074749708175659,149.705,-10.175,-12.861,-0.4894,-0.2824,-0.0397,-1.756,2.193,-9.564,0.002433,-0.000642,-0.000999
5429,1711208876.7414606,3.0997800827026367,149.705,-10.175,-12.861,-0.4903,-0.2804,-0.042,-1.774,2.168,-9.543,0.00053,-0.000248,0.000905
5430,1711208876.7666137,3.1249332427978516,149.707,-10.175,-12.86,-0.4904,-0.2863,-0.0485,-1.747,2.168,-9.589,-9.3e-05,-2e-06,-0.000136
5431,1711208876.7916734,3.1499929428100586,149.704,-10.176,-12.859,-0.4922,-0.2793,-0.0377,-1.765,2.172,-9.549,0.001435,-0.000526,2e-06
5432,1711208876.817014,3.1753334999084473,149.706,-10.177,-12.859,-0.4885,-0.2804,-0.0364,-1.789,2.204,-9.547,0.002075,0.000508,-0.00046
5433,1711208876.8413248,3.1996443271636963,149.703,-10.176,-12.86,-0.4895,-0.2834,-0.043,-1.751,2.184,-9.555,0.000317,-0.000614,0.00135
5434,1711208876.866645,3.2249646186828613,149.702,-10.174,-12.861,-0.4902,-0.2724,-0.0388,-1.74,2.187,-9.552,0.000747,0.000114,-0.000742
5435,1711208876.8914654,3.2497849464416504,149.703,-10.173,-12.86,-0.4904,-0.2863,-0.0485,-1.737,2.17,-9.542,0.000339,0.001175,-0.000248
5436,1711208876.9162998,3.2746193408966064,149.704,-10.172,-12.859,-0.4903,-0.2784,-0.0398,-1.767,2.202,-9.581,-0.000109,0.00034,0.000748
5437,1711208876.9432352,3.3015546798706055,149.704,-10.174,-12.859,-0.4923,-0.2882,-0.0376,-1.791,2.182,-9.544,0.001514,-0.000994,-8.4e-05
5438,1711208876.9664407,3.3247601985931396,149.701,-10.172,-12.859,-0.4904,-0.2853,-0.0375,-1.759,2.187,-9.507,-0.000636,0.002245,0.000523
5439,1711208876.991597,3.349916458129883,149.701,-10.171,-12.858,-0.4914,-0.2873,-0.0398,-1.734,2.162,-9.592,0.000891,0.000422,0.000858
5440,1711208877.0162663,3.3745858669281006,149.701,-10.17,-12.856,-0.4903,-0.2794,-0.0409,-1.746,2.201,-9.569,-0.001197,0.000489,0.000908
5441,1711208877.042087,3.4004065990448,149.7,-10.17,-12.857,-0.4932,-0.2872,-0.041,-1.802,2.199,-9.545,-0.000893,0.001408,-0.000942
5442,1711208877.0662327,3.4245522022247314,149.7,-10.171,-12.858,-0.4913,-0.2853,-0.0409,-1.783,2.167,-9.548,0.00083,-2.7e-05,-0.000574
5443,1711208877.091358,3.4496774673461914,149.699,-10.171,-12.857,-0.4922,-0.2833,-0.0388,-1.757,2.172,-9.565,-0.000721,-0.000499,2.3e-05
5444,1711208877.1162095,3.4745290279388428,149.699,-10.171,-12.855,-0.4968,-0.2812,-0.0424,-1.755,2.17,-9.557,0.001263,8.9e-05,0.000381
5445,1711208877.1428342,3.5011537075042725,149.699,-10.17,-12.856,-0.495,-0.2852,-0.0422,-1.774,2.194,-9.568,-0.00028,0.000763,-0.000283
5446,1711208877.1662061,3.5245256423950195,149.699,-10.172,-12.857,-0.4913,-0.2843,-0.0409,-1.771,2.195,-9.566,0.001701,0.000896,-0.000309
5447,1711208877.1920123,3.5503318309783936,149.697,-10.172,-12.858,-0.4894,-0.2804,-0.0408,-1.773,2.185,-9.514,-0.000495,-0.000389,-0.000601
5448,1711208877.2163937,3.5747132301330566,149.697,-10.172,-12.858,-0.4931,-0.2823,-0.0421,-1.732,2.191,-9.526,0.001373,0.00158,-5.8e-05
5449,1711208877.242374,3.600693464279175,149.696,-10.17,-12.856,-0.4932,-0.2843,-0.0432,-1.749,2.178,-9.526,-0.000263,-0.001454,0.000479
5450,1711208877.2669399,3.6252593994140625,149.698,-10.169,-12.857,-0.4913,-0.2813,-0.0409,-1.777,2.179,-9.546,-0.002762,-0.000373,-0.000921
5451,1711208877.2924423,3.650761842727661,149.699,-10.171,-12.856,-0.4941,-0.2823,-0.0389,-1.771,2.187,-9.527,0.00062,0.000853,0.000274
5452,1711208877.3172944,3.6756138801574707,149.702,-10.171,-12.856,-0.4914,-0.2873,-0.0365,-1.755,2.18,-9.569,-0.00103,0.001918,0.002023
5453,1711208877.342274,3.7005934715270996,149.703,-10.172,-12.856,-0.4913,-0.2833,-0.0442,-1.753,2.203,-9.528,0.000413,-6.5e-05,-0.000826
5454,1711208877.3669138,3.725233316421509,149.702,-10.17,-12.856,-0.4903,-0.2814,-0.0453,-1.738,2.189,-9.587,0.000718,-0.00122,-0.000855
5455,1711208877.3919244,3.750243902206421,149.701,-10.171,-12.856,-0.4932,-0.2833,-0.0399,-1.753,2.169,-9.556,0.00159,-0.000619,-0.000585
5456,1711208877.4171255,3.775444984436035,149.7,-10.172,-12.855,-0.4885,-0.2794,-0.0386,-1.79,2.197,-9.55,0.000801,0.000737,-0.000809
5457,1711208877.4421382,3.800457715988159,149.702,-10.172,-12.857,-0.4922,-0.2803,-0.041,-1.779,2.182,-9.549,-0.000623,0.001386,0.000824
5458,1711208877.466864,3.825183629989624,149.702,-10.172,-12.856,-0.4922,-0.2803,-0.0377,-1.754,2.194,-9.534,0.000982,0.000893,6.1e-05
5459,1711208877.4917831,3.850102663040161,149.702,-10.172,-12.856,-0.4913,-0.2823,-0.0409,-1.771,2.178,-9.566,0.001572,-0.001223,-0.000617
5460,1711208877.517137,3.8754565715789795,149.701,-10.172,-12.857,-0.4885,-0.2834,-0.0363,-1.777,2.155,-9.537,0.001418,-0.00141,-0.00031
5461,1711208877.541833,3.9001524448394775,149.702,-10.172,-12.857,-0.4922,-0.2793,-0.0399,-1.747,2.179,-9.522,0.001067,-0.000286,-0.000688
5462,1711208877.5667076,3.9250271320343018,149.702,-10.172,-12.857,-0.4913,-0.2833,-0.0409,-1.782,2.195,-9.551,0.00123,-0.00054,-0.000454
5463,1711208877.591751,3.95007061958313,149.701,-10.171,-12.857,-0.4913,-0.2823,-0.0398,-1.743,2.197,-9.564,-0.000249,0.001358,0.000759
5464,1711208877.6170464,3.9753658771514893,149.701,-10.17,-12.857,-0.4895,-0.2844,-0.0375,-1.765,2.195,-9.539,2.4e-05,-0.000151,-0.000226
5465,1711208877.6418366,4.0001561641693115,149.7,-10.171,-12.856,-0.4914,-0.2873,-0.0398,-1.784,2.184,-9.543,0.000555,0.00054,-6e-05
5466,1711208877.6666598,4.02497935295105,149.7,-10.172,-12.856,-0.4895,-0.2863,-0.0364,-1.769,2.178,-9.558,-0.001514,0.00021,-0.000311
5467,1711208877.6918516,4.050171136856079,149.701,-10.172,-12.857,-0.4913,-0.2823,-0.0376,-1.765,2.163,-9.547,-0.002077,0.000799,-0.000256
5468,1711208877.7169857,4.075305223464966,149.698,-10.171,-12.855,-0.4894,-0.2814,-0.0408,-1.767,2.191,-9.543,-0.001081,0.000715,0.00064
5469,1711208877.7416236,4.099943161010742,149.697,-10.171,-12.854,-0.4903,-0.2774,-0.0431,-1.765,2.176,-9.529,0.000424,0.001018,-0.000911
5470,1711208877.7667513,4.125070810317993,149.696,-10.171,-12.854,-0.4895,-0.2844,-0.0386,-1.756,2.166,-9.519,-0.000621,0.000993,-0.000215
5471,1711208877.7916465,4.14996600151062,149.698,-10.171,-12.852,-0.4894,-0.2794,-0.0386,-1.764,2.189,-9.56,0.002156,0.002788,0.000951
5472,1711208877.8165889,4.174908399581909,149.697,-10.169,-12.854,-0.4904,-0.2833,-0.042,-1.75,2.194,-9.538,-0.001271,0.001045,0.000224
5473,1711208877.841567,4.1998865604400635,149.696,-10.169,-12.853,-0.4923,-0.2843,-0.0399,-1.747,2.188,-9.578,0.000895,0.000398,-0.000349
5474,1711208877.8665943,4.224913835525513,149.696,-10.168,-12.854,-0.4904,-0.2833,-0.0387,-1.756,2.177,-9.544,0.000156,-0.000392,-0.000615
5475,1711208877.891582,4.249901533126831,149.694,-10.171,-12.854,-0.4914,-0.2902,-0.043,-1.782,2.195,-9.545,0.000596,0.000544,0.00166
5476,1711208877.916536,4.274855613708496,149.693,-10.17,-12.853,-0.4904,-0.2863,-0.0386,-1.768,2.187,-9.589,-0.001574,0.001129,0.001085
5477,1711208877.9415345,4.299854040145874,149.692,-10.17,-12.853,-0.4921,-0.2764,-0.0411,-1.777,2.189,-9.538,-0.001994,-0.000182,0.000384
5478,1711208877.9665256,4.3248450756073,149.691,-10.171,-12.853,-0.4894,-0.2814,-0.0386,-1.741,2.202,-9.546,0.00265,-6.7e-05,-8e-06
5479,1711208877.9915807,4.349900245666504,149.689,-10.171,-12.854,-0.4895,-0.2853,-0.0375,-1.769,2.19,-9.548,0.001742,-0.001702,0.000994
5480,1711208878.0165014,4.374820947647095,149.685,-10.17,-12.855,-0.4904,-0.2853,-0.0386,-1.768,2.181,-9.55,-0.000287,0.000439,-0.000474
5481,1711208878.0414996,4.3998191356658936,149.684,-10.169,-12.853,-0.4904,-0.2863,-0.0408,-1.745,2.182,-9.514,-0.003753,0.002278,-0.000617
5482,1711208878.0664701,4.424789667129517,149.683,-10.169,-12.854,-0.4877,-0.2864,-0.0417,-1.763,2.202,-9.545,-0.003073,0.001196,0.000491
5483,1711208878.092508,4.450827598571777,149.682,-10.169,-12.852,-0.4922,-0.2793,-0.041,-1.77,2.217,-9.52,0.000135,0.00179,-0.000445
5484,1711208878.1164708,4.474790334701538,149.681,-10.17,-12.852,-0.4904,-0.2863,-0.0375,-1.771,2.183,-9.569,0.000644,0.000383,0.000549
5485,1711208878.1414912,4.499810695648193,149.678,-10.17,-12.851,-0.4914,-0.2863,-0.0376,-1.743,2.181,-9.557,0.000304,-4.4e-05,-0.000277
5486,1711208878.1664655,4.524785041809082,149.678,-10.17,-12.852,-0.4877,-0.2903,-0.0362,-1.768,2.186,-9.529,0.00036,0.000543,0.000158
5487,1711208878.1915152,4.549834728240967,149.678,-10.17,-12.852,-0.4913,-0.2843,-0.0376,-1.756,2.185,-9.553,0.000878,-0.001051,-0.000289
5488,1711208878.216787,4.575106620788574,149.681,-10.17,-12.852,-0.4913,-0.2853,-0.0409,-1.763,2.178,-9.531,-0.000471,7.5e-05,6.5e-05
5489,1711208878.241916,4.600235462188721,149.681,-10.171,-12.853,-0.4886,-0.2893,-0.0429,-1.785,2.205,-9.538,-0.001839,0.000639,-0.000262
5490,1711208878.2667847,4.625104188919067,149.681,-10.17,-12.852,-0.4894,-0.2784,-0.0343,-1.771,2.175,-9.579,0.000128,0.002699,7e-06
5491,1711208878.2915332,4.649852752685547,149.679,-10.17,-12.853,-0.4895,-0.2844,-0.0386,-1.788,2.171,-9.586,-0.001202,0.000428,-0.001114
5492,1711208878.3167534,4.675072908401489,149.68,-10.17,-12.852,-0.4904,-0.2863,-0.0353,-1.766,2.176,-9.552,3.2e-05,0.001702,-0.001078
5493,1711208878.3417156,4.700035095214844,149.679,-10.17,-12.851,-0.4932,-0.2853,-0.0377,-1.738,2.156,-9.547,-8.3e-05,-0.000237,0.000259
5494,1711208878.3666403,4.724959850311279,149.679,-10.17,-12.851,-0.4895,-0.2834,-0.0397,-1.766,2.188,-9.55,-0.001123,0.001955,-0.001079
5495,1711208878.3920097,4.750329256057739,149.678,-10.171,-12.851,-0.4886,-0.2844,-0.0407,-1.755,2.181,-9.538,0.000171,0.00072,-0.001882
5496,1711208878.4166813,4.775000810623169,149.679,-10.171,-12.851,-0.4895,-0.2863,-0.0353,-1.762,2.18,-9.574,0.000137,-0.000148,-0.000452
5497,1711208878.4415357,4.7998552322387695,149.678,-10.17,-12.85,-0.4913,-0.2843,-0.0387,-1.741,2.185,-9.56,0.001136,-0.000373,0.000539
5498,1711208878.466534,4.824853420257568,149.677,-10.168,-12.849,-0.4903,-0.2794,-0.0365,-1.767,2.183,-9.538,-0.001847,-0.000373,0.001198
5499,1711208878.4914365,4.8497560024261475,149.68,-10.168,-12.85,-0.4913,-0.2813,-0.0409,-1.771,2.174,-9.54,-0.000845,0.0018,0.000526
5500,1711208878.5166066,4.8749260902404785,149.68,-10.168,-12.85,-0.4904,-0.2804,-0.0354,-1.77,2.186,-9.553,-0.000591,0.000835,0.000619
5501,1711208878.541967,4.900286436080933,149.68,-10.169,-12.851,-0.4903,-0.2784,-0.0398,-1.751,2.185,-9.528,0.000176,-0.000754,-0.000781
5502,1711208878.5665753,4.9248948097229,149.681,-10.167,-12.849,-0.4875,-0.2775,-0.0396,-1.741,2.161,-9.544,0.000209,0.000699,-0.000349
5503,1711208878.591293,4.949612617492676,149.683,-10.167,-12.85,-0.4894,-0.2814,-0.0386,-1.758,2.183,-9.531,-0.00071,0.001772,0.000676
5504,1711208878.616512,4.974831581115723,149.685,-10.168,-12.85,-0.4895,-0.2883,-0.0374,-1.748,2.192,-9.54,0.002007,-0.001154,0.00096
5505,1711208878.642452,5.000771522521973,149.684,-10.169,-12.849,-0.4886,-0.2864,-0.0385,-1.758,2.172,-9.54,-0.001396,-0.000276,-0.000211
5506,1711208878.666492,5.024811506271362,149.682,-10.17,-12.848,-0.4858,-0.2864,-0.0372,-1.791,2.194,-9.539,0.000925,0.00128,1.4e-05
5507,1711208878.6933806,5.051700115203857,149.68,-10.17,-12.849,-0.4894,-0.2814,-0.0397,-1.749,2.17,-9.524,-0.000605,0.000107,-0.000762
5508,1711208878.7164729,5.074792385101318,149.68,-10.17,-12.85,-0.4886,-0.2844,-0.0374,-1.773,2.177,-9.558,-0.004315,0.001585,-0.000479
5509,1711208878.742033,5.10035252571106,149.68,-10.169,-12.848,-0.4885,-0.2814,-0.0419,-1.767,2.159,-9.553,-0.002103,0.002831,0.000384
5510,1711208878.7673988,5.125718355178833,149.68,-10.17,-12.848,-0.4885,-0.2804,-0.0353,-1.768,2.202,-9.587,-7.4e-05,0.001615,-0.000407
5511,1711208878.7919831,5.1503026485443115,149.679,-10.169,-12.847,-0.4922,-0.2833,-0.0399,-1.751,2.182,-9.539,0.000793,-0.000462,0.001854
5512,1711208878.8164167,5.174736261367798,149.681,-10.169,-12.848,-0.4905,-0.2873,-0.0397,-1.773,2.175,-9.527,0.000166,0.000668,-0.000349
5513,1711208878.8419178,5.200237274169922,149.68,-10.169,-12.849,-0.4903,-0.2754,-0.0409,-1.77,2.177,-9.539,-0.000657,0.001996,0.000729
5514,1711208878.8668532,5.225172758102417,149.678,-10.171,-12.848,-0.4913,-0.2843,-0.0376,-1.749,2.166,-9.573,0.00082,0.001373,-0.000558
5515,1711208878.8921013,5.250420808792114,149.678,-10.171,-12.848,-0.4904,-0.2823,-0.0398,-1.762,2.202,-9.561,0.001368,-0.001681,-0.001587
5516,1711208878.9168012,5.275120735168457,149.678,-10.171,-12.848,-0.4886,-0.2844,-0.0363,-1.747,2.189,-9.533,0.000118,-0.00109,0.000941
5517,1711208878.941821,5.300140619277954,149.677,-10.17,-12.847,-0.4922,-0.2823,-0.0388,-1.744,2.193,-9.543,0.00028,0.000109,0.000259
5518,1711208878.967097,5.325416564941406,149.674,-10.17,-12.849,-0.4876,-0.2824,-0.0374,-1.772,2.18,-9.532,-0.001687,0.000784,0.000357
5519,1711208878.99184,5.350159406661987,149.675,-10.171,-12.849,-0.4904,-0.2833,-0.042,-1.757,2.192,-9.566,0.001476,-0.001397,-0.000774
5520,1711208879.0171573,5.375476837158203,149.673,-10.17,-12.849,-0.4904,-0.2843,-0.0343,-1.77,2.175,-9.552,0.000472,8.4e-05,-0.00028
5521,1711208879.0425692,5.400888681411743,149.675,-10.17,-12.849,-0.4951,-0.2862,-0.0367,-1.77,2.186,-9.528,0.002293,0.000578,8.9e-05
5522,1711208879.066736,5.425055503845215,149.676,-10.17,-12.848,-0.4904,-0.2814,-0.0376,-1.741,2.183,-9.564,0.000315,0.001034,0.000314
5523,1711208879.0917656,5.450085163116455,149.677,-10.171,-12.847,-0.4914,-0.2883,-0.0387,-1.769,2.175,-9.523,0.002629,-0.000952,0.000115
5524,1711208879.1170287,5.475348234176636,149.674,-10.169,-12.845,-0.4904,-0.2824,-0.0354,-1.751,2.168,-9.537,0.001429,0.000197,0.001031
5525,1711208879.1427693,5.501088857650757,149.673,-10.169,-12.846,-0.4932,-0.2843,-0.0421,-1.776,2.182,-9.567,0.001836,-0.000157,-0.000521
5526,1711208879.166998,5.525317430496216,149.673,-10.17,-12.845,-0.4904,-0.2863,-0.0342,-1.763,2.178,-9.554,0.0016,0.000174,0.000279
5527,1711208879.1916783,5.549997806549072,149.674,-10.17,-12.846,-0.4913,-0.2853,-0.0398,-1.743,2.179,-9.561,-0.000937,-0.001796,-0.001238
5528,1711208879.216864,5.575183629989624,149.676,-10.171,-12.846,-0.4904,-0.2824,-0.0354,-1.761,2.165,-9.529,0.000636,-0.00047,0.00028
5529,1711208879.2421222,5.6004416942596436,149.676,-10.17,-12.846,-0.4914,-0.2863,-0.0387,-1.758,2.16,-9.56,-0.001139,0.00307,0.001268
5530,1711208879.266867,5.625186443328857,149.674,-10.17,-12.846,-0.4914,-0.2853,-0.0365,-1.753,2.174,-9.557,-0.003395,0.000995,0.000498
5531,1711208879.2928123,5.651131868362427,149.671,-10.17,-12.845,-0.4904,-0.2843,-0.0419,-1.768,2.186,-9.561,8.8e-05,0.001228,0.000221
5532,1711208879.316777,5.67509651184082,149.672,-10.17,-12.844,-0.4904,-0.2824,-0.0343,-1.767,2.193,-9.557,-0.00049,6.8e-05,0.00013
5533,1711208879.3416057,5.699925184249878,149.671,-10.17,-12.844,-0.4914,-0.2863,-0.0431,-1.762,2.193,-9.547,0.001089,0.000929,-0.000492
5534,1711208879.3665884,5.724907875061035,149.669,-10.17,-12.844,-0.4895,-0.2863,-0.0386,-1.764,2.172,-9.527,-0.002086,0.001413,-0.000424
5535,1711208879.3920443,5.750363826751709,149.667,-10.171,-12.845,-0.4923,-0.2882,-0.0398,-1.758,2.199,-9.572,-0.000544,0.00118,0.000275
5536,1711208879.416897,5.775216579437256,149.667,-10.172,-12.844,-0.4895,-0.2844,-0.0386,-1.754,2.186,-9.522,0.002074,-0.00013,-0.000736
5537,1711208879.4437296,5.802049160003662,149.666,-10.173,-12.845,-0.4923,-0.2863,-0.0409,-1.789,2.175,-9.551,0.000644,0.000473,-0.000486
5538,1711208879.4667022,5.825021743774414,149.666,-10.174,-12.846,-0.4886,-0.2844,-0.0396,-1.733,2.186,-9.512,0.00179,-0.001147,-0.001078
5539,1711208879.4959757,5.854295253753662,149.663,-10.173,-12.848,-0.4904,-0.2833,-0.0409,-1.771,2.207,-9.55,-0.000336,-0.000171,8.6e-05
5540,1711208879.5167186,5.875038146972656,149.665,-10.173,-12.847,-0.4894,-0.2764,-0.0365,-1.75,2.167,-9.559,0.001165,-0.00189,-0.00016
5541,1711208879.5415194,5.899838924407959,149.662,-10.172,-12.846,-0.4913,-0.2843,-0.0398,-1.761,2.192,-9.517,0.00045,0.000519,-0.001141
5542,1711208879.5664694,5.924788951873779,149.661,-10.173,-12.846,-0.4895,-0.2834,-0.0364,-1.763,2.178,-9.555,8.1e-05,0.001667,0.000114
5543,1711208879.5916307,5.949950218200684,149.661,-10.173,-12.846,-0.4932,-0.2892,-0.0443,-1.774,2.194,-9.549,-0.001369,0.000106,0.000698
5544,1711208879.6167028,5.975022315979004,149.662,-10.173,-12.845,-0.4885,-0.2794,-0.0375,-1.767,2.172,-9.557,0.000367,0.001486,0.00053
5545,1711208879.641846,6.0001654624938965,149.662,-10.174,-12.845,-0.4903,-0.2804,-0.0376,-1.779,2.192,-9.571,0.000394,-0.001427,0.000428
5546,1711208879.6664362,6.0247557163238525,149.664,-10.174,-12.847,-0.4894,-0.2814,-0.0364,-1.758,2.168,-9.551,0.000401,-0.000313,-0.000163
5547,1711208879.6915677,6.049887180328369,149.664,-10.174,-12.847,-0.4904,-0.2833,-0.0409,-1.758,2.196,-9.552,-0.000189,0.000297,-0.000453
5548,1711208879.716391,6.0747106075286865,149.662,-10.173,-12.849,-0.4904,-0.2843,-0.0354,-1.75,2.185,-9.524,0.001763,-0.000735,-0.000506
5549,1711208879.7415142,6.099833726882935,149.664,-10.175,-12.848,-0.4904,-0.2833,-0.042,-1.787,2.186,-9.563,-0.000523,6.5e-05,-3.3e-05
5550,1711208879.76668,6.124999523162842,149.667,-10.174,-12.848,-0.4923,-0.2882,-0.0354,-1.759,2.166,-9.524,-0.00067,0.001837,-0.000378
5551,1711208879.7914782,6.149797677993774,149.669,-10.176,-12.847,-0.495,-0.2842,-0.0346,-1.767,2.19,-9.561,0.000322,0.001204,-2.6e-05
5552,1711208879.81674,6.17505955696106,149.669,-10.175,-12.847,-0.4876,-0.2844,-0.0407,-1.764,2.205,-9.562,0.001226,0.001249,0.00088
5553,1711208879.8413963,6.199715852737427,149.67,-10.176,-12.849,-0.4904,-0.2853,-0.043,-1.772,2.205,-9.555,0.001593,-0.000547,-0.000509
5554,1711208879.8664517,6.22477126121521,149.669,-10.177,-12.849,-0.4875,-0.2765,-0.0408,-1.764,2.19,-9.568,0.001475,-0.000242,0.00056
5555,1711208879.8917348,6.250054359436035,149.67,-10.178,-12.851,-0.4913,-0.2843,-0.042,-1.753,2.182,-9.521,-0.001925,0.001002,0.000281
5556,1711208879.9166906,6.275010108947754,149.67,-10.177,-12.85,-0.4904,-0.2843,-0.0408,-1.754,2.173,-9.557,-0.000442,0.001833,5.5e-05
5557,1711208879.941357,6.299676418304443,149.67,-10.178,-12.85,-0.4913,-0.2843,-0.0442,-1.767,2.175,-9.533,0.00021,-0.000242,-0.00048
5558,1711208879.9666083,6.324927806854248,149.672,-10.178,-12.849,-0.4904,-0.2833,-0.0332,-1.756,2.177,-9.545,0.001539,0.000203,0.000346
5559,1711208879.9912763,6.349595785140991,149.673,-10.178,-12.849,-0.4913,-0.2853,-0.0387,-1.754,2.173,-9.552,0.001757,-0.00013,0.000891
5560,1711208880.016521,6.374840497970581,149.673,-10.177,-12.847,-0.4904,-0.2824,-0.0365,-1.774,2.196,-9.542,-0.000766,0.001818,0.000423
5561,1711208880.0412123,6.399531841278076,149.677,-10.178,-12.848,-0.4904,-0.2833,-0.0398,-1.768,2.175,-9.521,-0.000243,-0.001573,8e-06
5562,1711208880.0661926,6.424512147903442,149.675,-10.18,-12.849,-0.4886,-0.2864,-0.0385,-1.781,2.17,-9.553,0.002154,-0.001225,-3.3e-05
5563,1711208880.092115,6.450434446334839,149.674,-10.18,-12.848,-0.4913,-0.2823,-0.0409,-1.762,2.188,-9.584,0.001442,4.9e-05,-0.000281
5564,1711208880.1161942,6.47451376914978,149.673,-10.181,-12.849,-0.4904,-0.2833,-0.0376,-1.759,2.175,-9.536,0.000708,-0.000662,0.00125
5565,1711208880.1420286,6.500348091125488,149.676,-10.181,-12.849,-0.4904,-0.2814,-0.0387,-1.775,2.189,-9.545,0.002006,-5.2e-05,-0.000436
5566,1711208880.166801,6.525120496749878,149.675,-10.181,-12.849,-0.4895,-0.2863,-0.0397,-1.748,2.188,-9.557,-0.000806,0.000344,-0.000237
5567,1711208880.1919863,6.5503058433532715,149.675,-10.182,-12.851,-0.4932,-0.2843,-0.041,-1.755,2.187,-9.558,0.000546,0.00041,-9.3e-05
5568,1711208880.2160935,6.574413061141968,149.674,-10.181,-12.853,-0.4894,-0.2814,-0.0375,-1.761,2.177,-9.538,-0.001379,0.00085,0.000477
5569,1711208880.2426286,6.600948095321655,149.674,-10.181,-12.851,-0.4912,-0.2754,-0.041,-1.759,2.178,-9.561,-0.000972,-0.000565,-0.000631
5570,1711208880.2669618,6.62528133392334,149.675,-10.181,-12.851,-0.4904,-0.2843,-0.0376,-1.757,2.175,-9.559,-0.000268,0.000453,-0.000363
5571,1711208880.2919457,6.650265216827393,149.677,-10.18,-12.852,-0.4913,-0.2813,-0.0431,-1.763,2.191,-9.583,-0.000548,0.000476,0.000355
5572,1711208880.3168528,6.675172328948975,149.677,-10.181,-12.854,-0.4877,-0.2884,-0.0373,-1.745,2.206,-9.571,0.000108,0.000553,0.000668
5573,1711208880.3418677,6.7001872062683105,149.676,-10.18,-12.855,-0.4895,-0.2863,-0.0364,-1.766,2.171,-9.515,-0.000364,0.001537,-0.000125
5574,1711208880.366825,6.725144624710083,149.673,-10.182,-12.854,-0.4886,-0.2864,-0.044,-1.767,2.192,-9.549,0.001268,0.001429,-0.00026
5575,1711208880.3918269,6.750146389007568,149.672,-10.183,-12.854,-0.4913,-0.2843,-0.0398,-1.768,2.21,-9.556,0.001306,-0.000528,-0.000278
5576,1711208880.4167855,6.775104999542236,149.674,-10.184,-12.854,-0.4875,-0.2785,-0.0352,-1.737,2.189,-9.556,0.000447,-0.000579,-5.4e-05
5577,1711208880.4419274,6.800246953964233,149.672,-10.183,-12.855,-0.4913,-0.2823,-0.0387,-1.756,2.181,-9.561,0.001369,0.001285,-0.000417
5578,1711208880.4687445,6.827064037322998,149.672,-10.182,-12.855,-0.4914,-0.2863,-0.0376,-1.746,2.177,-9.572,0.000728,9.6e-05,0.000946
5579,1711208880.4918988,6.850218296051025,149.669,-10.182,-12.855,-0.4922,-0.2833,-0.041,-1.768,2.169,-9.543,0.001478,-0.000165,-0.000565
5580,1711208880.5172946,6.875614166259766,149.671,-10.182,-12.854,-0.4877,-0.2864,-0.0406,-1.764,2.192,-9.578,0.001892,0.001606,-0.000231
5581,1711208880.5417392,6.900058746337891,149.671,-10.182,-12.857,-0.4913,-0.2853,-0.0442,-1.762,2.202,-9.561,0.00192,0.000291,-0.000473
5582,1711208880.5666983,6.925017833709717,149.672,-10.182,-12.857,-0.4876,-0.2844,-0.0363,-1.755,2.181,-9.53,0.000406,-0.000466,-0.000145
5583,1711208880.591723,6.950042486190796,149.673,-10.182,-12.856,-0.4895,-0.2873,-0.0418,-1.751,2.18,-9.545,-0.000149,0.000984,0.00093
5584,1711208880.6177013,6.976020812988281,149.675,-10.184,-12.856,-0.4913,-0.2833,-0.0409,-1.757,2.177,-9.545,0.000509,0.000847,0.000977
5585,1711208880.6416886,7.0000081062316895,149.676,-10.183,-12.854,-0.4876,-0.2834,-0.0429,-1.76,2.182,-9.569,0.001911,-0.001203,0.00038
5586,1711208880.6666176,7.024937152862549,149.676,-10.182,-12.855,-0.4876,-0.2824,-0.0363,-1.772,2.191,-9.561,0.001334,-0.000124,-0.000205
5587,1711208880.6916876,7.050007104873657,149.678,-10.182,-12.855,-0.4913,-0.2853,-0.0453,-1.739,2.19,-9.552,-0.000178,0.001868,0.000168
5588,1711208880.7168832,7.075202703475952,149.679,-10.181,-12.855,-0.4904,-0.2873,-0.0419,-1.776,2.188,-9.545,-0.002177,0.001171,0.001111
5589,1711208880.7417178,7.100037336349487,149.675,-10.182,-12.854,-0.4913,-0.2823,-0.0376,-1.758,2.166,-9.558,0.000395,0.001378,-0.000826
5590,1711208880.767039,7.125358581542969,149.675,-10.182,-12.853,-0.4895,-0.2883,-0.0407,-1.785,2.188,-9.569,0.002446,-0.000789,0.000527
5591,1711208880.7917023,7.15002179145813,149.674,-10.184,-12.853,-0.4904,-0.2853,-0.0375,-1.798,2.171,-9.543,0.003613,-0.000159,0.000718
5592,1711208880.8168826,7.175202131271362,149.674,-10.183,-12.854,-0.4904,-0.2833,-0.043,-1.75,2.205,-9.546,0.000913,-0.000246,-0.000754
5593,1711208880.8416998,7.200019359588623,149.673,-10.185,-12.855,-0.4913,-0.2803,-0.0431,-1.779,2.186,-9.51,0.000264,-0.001177,0.000528
5594,1711208880.866918,7.225237607955933,149.674,-10.185,-12.854,-0.4903,-0.2784,-0.0387,-1.747,2.185,-9.553,0.0019,0.000215,0.000954
5595,1711208880.8920414,7.25036096572876,149.676,-10.185,-12.855,-0.4904,-0.2833,-0.0387,-1.787,2.178,-9.581,0.001529,-0.000769,0.000119
5596,1711208880.9168878,7.275207281112671,149.675,-10.185,-12.856,-0.4886,-0.2883,-0.0363,-1.758,2.181,-9.547,0.002526,0.000379,0.00022
5597,1711208880.9461312,7.304450750350952,149.672,-10.184,-12.856,-0.4922,-0.2823,-0.0399,-1.746,2.173,-9.56,-0.00189,0.0007,0.00054
5598,1711208880.9665349,7.324854373931885,149.67,-10.184,-12.856,-0.4914,-0.2883,-0.0354,-1.743,2.177,-9.574,0.000444,-0.001065,-0.00059
5599,1711208880.9924862,7.350805759429932,149.67,-10.184,-12.855,-0.4904,-0.2833,-0.0398,-1.782,2.187,-9.57,-0.0,0.001333,0.00031
5600,1711208881.0164595,7.374778985977173,149.67,-10.185,-12.854,-0.4895,-0.2844,-0.0408,-1.773,2.201,-9.547,0.000235,0.001076,0.000526
5601,1711208881.0415628,7.3998823165893555,149.67,-10.184,-12.854,-0.4941,-0.2823,-0.0389,-1.755,2.173,-9.529,-0.0019,0.002407,0.001531
5602,1711208881.066794,7.4251134395599365,149.67,-10.182,-12.854,-0.4904,-0.2843,-0.0387,-1.774,2.193,-9.567,-0.002766,0.002375,0.000982
5603,1711208881.0921433,7.450462818145752,149.668,-10.182,-12.853,-0.4886,-0.2854,-0.0418,-1.764,2.188,-9.549,-0.002365,0.001282,-0.000386
5604,1711208881.1167765,7.475095987319946,149.667,-10.183,-12.853,-0.4886,-0.2854,-0.0363,-1.786,2.181,-9.526,0.000124,0.001939,-0.000628
5605,1711208881.1416485,7.4999680519104,149.669,-10.183,-12.852,-0.4913,-0.2833,-0.0387,-1.76,2.195,-9.558,0.001113,0.00182,0.001344
5606,1711208881.166607,7.524926424026489,149.672,-10.181,-12.853,-0.4858,-0.2825,-0.034,-1.748,2.193,-9.551,0.001266,-7.8e-05,0.00032
5607,1711208881.191926,7.550245523452759,149.673,-10.18,-12.852,-0.4894,-0.2804,-0.0375,-1.765,2.18,-9.558,0.002179,-0.000307,0.000379
5608,1711208881.216373,7.574692487716675,149.672,-10.181,-12.852,-0.4876,-0.2824,-0.0407,-1.766,2.191,-9.547,-0.000129,-0.000129,-5.2e-05
5609,1711208881.2414153,7.599734783172607,149.67,-10.183,-12.852,-0.4894,-0.2804,-0.0386,-1.806,2.17,-9.548,0.000935,0.00091,-0.001426
5610,1711208881.2663603,7.624679803848267,149.672,-10.183,-12.85,-0.4885,-0.2814,-0.0364,-1.742,2.172,-9.548,0.0011,0.000717,-0.000671
5611,1711208881.2913716,7.649691104888916,149.674,-10.18,-12.849,-0.4876,-0.2824,-0.0385,-1.757,2.168,-9.556,0.002767,-0.002165,-0.000413
5612,1711208881.3163419,7.67466139793396,149.672,-10.179,-12.847,-0.4885,-0.2804,-0.0353,-1.757,2.181,-9.542,-0.00042,-0.000576,-0.000831
5613,1711208881.3413188,7.699638366699219,149.672,-10.18,-12.849,-0.4923,-0.2843,-0.0377,-1.776,2.186,-9.539,-0.000534,0.000197,0.000208
5614,1711208881.3663142,7.724633693695068,149.673,-10.181,-12.85,-0.4895,-0.2853,-0.0364,-1.762,2.194,-9.53,-0.000797,0.000472,0.000124
5615,1711208881.3913145,7.749634027481079,149.674,-10.181,-12.851,-0.4894,-0.2814,-0.0408,-1.762,2.165,-9.549,-0.002986,0.000911,0.001203
5616,1711208881.4162526,7.774572134017944,149.676,-10.179,-12.848,-0.4914,-0.2853,-0.0343,-1.734,2.165,-9.529,-0.000916,8.3e-05,0.000302
5617,1711208881.4413123,7.799631834030151,149.674,-10.179,-12.848,-0.4904,-0.2823,-0.042,-1.774,2.166,-9.552,-0.001221,0.000307,-0.001609
5618,1711208881.4662633,7.824582815170288,149.673,-10.181,-12.849,-0.4885,-0.2814,-0.0375,-1.771,2.184,-9.554,0.001693,-0.000818,0.000253
5619,1711208881.4921277,7.850447177886963,149.671,-10.181,-12.848,-0.4886,-0.2854,-0.0374,-1.778,2.185,-9.532,-0.000169,0.001704,0.000496
5620,1711208881.5162234,7.874542951583862,149.669,-10.181,-12.848,-0.4895,-0.2863,-0.0386,-1.741,2.173,-9.548,0.002526,0.000743,0.000463
5621,1711208881.5412362,7.899555683135986,149.67,-10.178,-12.847,-0.4895,-0.2893,-0.0451,-1.768,2.163,-9.583,-0.00097,0.000363,0.000377
5622,1711208881.5662167,7.924536228179932,149.671,-10.179,-12.847,-0.4867,-0.2864,-0.0428,-1.779,2.182,-9.57,0.000635,0.000338,2e-06
5623,1711208881.5953057,7.953625202178955,149.671,-10.18,-12.848,-0.4895,-0.2843,-0.043,-1.79,2.194,-9.53,0.000279,0.000239,0.000342
5624,1711208881.6163971,7.974716663360596,149.673,-10.18,-12.848,-0.4885,-0.2834,-0.0385,-1.754,2.192,-9.514,0.001375,0.000243,0.000367
5625,1711208881.6422963,8.00061583518982,149.671,-10.178,-12.846,-0.4912,-0.2784,-0.0399,-1.735,2.148,-9.563,-0.000695,0.002754,-0.000709
5626,1711208881.6668787,8.025198221206665,149.672,-10.176,-12.846,-0.4885,-0.2794,-0.0397,-1.738,2.186,-9.54,-0.001162,3.7e-05,0.000687
5627,1711208881.6920211,8.05034065246582,149.671,-10.177,-12.845,-0.4895,-0.2863,-0.0441,-1.758,2.202,-9.568,-0.000148,0.001214,-0.000928
5628,1711208881.716181,8.074500560760498,149.669,-10.176,-12.846,-0.4913,-0.2823,-0.0376,-1.761,2.2,-9.527,0.000139,0.002067,1.8e-05
5629,1711208881.7422395,8.100558996200562,149.67,-10.176,-12.845,-0.4895,-0.2844,-0.0408,-1.751,2.203,-9.572,0.001277,0.001047,5.3e-05
5630,1711208881.7671995,8.125519037246704,149.669,-10.173,-12.844,-0.4877,-0.2854,-0.0363,-1.75,2.189,-9.59,0.001168,-0.000253,7.9e-05
5631,1711208881.7919278,8.15024733543396,149.668,-10.174,-12.845,-0.4894,-0.2814,-0.0397,-1.779,2.196,-9.565,-0.000126,-0.001168,-0.00104
5632,1711208881.8172224,8.175541877746582,149.671,-10.175,-12.845,-0.4876,-0.2814,-0.0374,-1.768,2.185,-9.563,0.000173,0.000719,4.4e-05
5633,1711208881.8419552,8.20027470588684,149.673,-10.175,-12.846,-0.4905,-0.2883,-0.0397,-1.776,2.195,-9.549,-0.000746,0.001437,-6.1e-05
5634,1711208881.8671865,8.225506067276001,149.676,-10.173,-12.845,-0.4913,-0.2843,-0.0398,-1.738,2.17,-9.54,-0.001949,0.000254,0.000387
5635,1711208881.891895,8.250214576721191,149.677,-10.172,-12.844,-0.4913,-0.2843,-0.0387,-1.76,2.188,-9.527,-0.00068,0.000572,0.000306
5636,1711208881.91686,8.275179624557495,149.676,-10.175,-12.844,-0.4886,-0.2844,-0.0385,-1.789,2.175,-9.553,-0.002028,0.001144,0.000205
5637,1711208881.94185,8.300169467926025,149.674,-10.176,-12.845,-0.4905,-0.2883,-0.0419,-1.77,2.17,-9.586,-0.00178,0.000968,-0.000387
5638,1711208881.9670959,8.32541537284851,149.668,-10.176,-12.844,-0.4896,-0.2903,-0.0363,-1.754,2.189,-9.588,0.001941,0.001438,-0.000138
5639,1711208881.9927084,8.351027965545654,149.666,-10.175,-12.843,-0.4895,-0.2873,-0.0364,-1.773,2.207,-9.557,0.001454,-0.002111,-0.001253
5640,1711208882.0170557,8.375375270843506,149.664,-10.175,-12.844,-0.4886,-0.2864,-0.033,-1.765,2.176,-9.546,0.000509,-0.000709,-9.6e-05
5641,1711208882.0417597,8.400079250335693,149.662,-10.174,-12.844,-0.4923,-0.2873,-0.0398,-1.766,2.227,-9.569,0.000227,0.000566,-0.000289
5642,1711208882.0669105,8.425230026245117,149.661,-10.175,-12.847,-0.4895,-0.2863,-0.0375,-1.773,2.186,-9.548,-0.001209,0.00108,0.001491
5643,1711208882.0917945,8.450114011764526,149.659,-10.173,-12.844,-0.4914,-0.2873,-0.042,-1.751,2.169,-9.564,0.000163,0.001045,0.000455
5644,1711208882.1179616,8.47628116607666,149.657,-10.171,-12.843,-0.4894,-0.2814,-0.0364,-1.747,2.171,-9.565,-0.000806,0.001278,5.5e-05
5645,1711208882.1417031,8.500022649765015,149.654,-10.173,-12.843,-0.4895,-0.2863,-0.0397,-1.76,2.191,-9.558,0.000469,0.00082,-7.9e-05
5646,1711208882.1668792,8.525198698043823,149.655,-10.173,-12.843,-0.4876,-0.2834,-0.0385,-1.769,2.19,-9.526,0.001873,0.001343,-0.000302
5647,1711208882.1916683,8.54998779296875,149.654,-10.172,-12.843,-0.4904,-0.2823,-0.042,-1.742,2.184,-9.53,0.002103,1e-05,0.000319
5648,1711208882.217649,8.575968503952026,149.653,-10.171,-12.843,-0.4894,-0.2814,-0.0375,-1.745,2.171,-9.587,-0.000312,0.001262,0.000244
5649,1711208882.2416005,8.59992003440857,149.654,-10.171,-12.843,-0.4913,-0.2813,-0.0409,-1.783,2.2,-9.528,-0.000236,-0.000377,0.000762
5650,1711208882.26657,8.624889612197876,149.654,-10.172,-12.843,-0.4877,-0.2854,-0.0352,-1.752,2.185,-9.542,0.000979,0.000171,0.000509
5651,1711208882.291636,8.64995551109314,149.653,-10.172,-12.844,-0.4904,-0.2843,-0.0387,-1.772,2.178,-9.528,0.000248,0.001336,-0.001162
5652,1711208882.3165452,8.674864768981934,149.653,-10.173,-12.844,-0.4895,-0.2844,-0.0375,-1.739,2.168,-9.565,0.001193,0.000145,0.00054
5653,1711208882.3419006,8.700220108032227,149.652,-10.171,-12.843,-0.4922,-0.2803,-0.041,-1.769,2.186,-9.558,0.000271,-0.000231,0.000925
5654,1711208882.3666506,8.72497010231018,149.653,-10.172,-12.844,-0.4904,-0.2804,-0.0354,-1.765,2.168,-9.556,0.001314,-0.001787,0.00081
5655,1711208882.3915894,8.749908924102783,149.651,-10.17,-12.842,-0.4922,-0.2823,-0.0366,-1.748,2.182,-9.547,0.001355,-2e-06,0.000675
5656,1711208882.4166343,8.774953842163086,149.653,-10.171,-12.842,-0.4904,-0.2843,-0.0365,-1.744,2.157,-9.535,0.002432,-0.001525,-0.000739
5657,1711208882.4426434,8.800962924957275,149.653,-10.169,-12.842,-0.4913,-0.2823,-0.0442,-1.732,2.162,-9.574,0.001313,-0.000372,-0.001121
5658,1711208882.4665208,8.824840307235718,149.651,-10.17,-12.844,-0.4876,-0.2824,-0.0374,-1.76,2.182,-9.578,-0.000455,-0.000508,-3e-06
5659,1711208882.4918046,8.85012412071228,149.648,-10.169,-12.843,-0.4886,-0.2893,-0.0396,-1.76,2.206,-9.521,-0.000754,0.00157,0.00084
5660,1711208882.5168002,8.875119686126709,149.645,-10.171,-12.843,-0.4885,-0.2834,-0.0363,-1.751,2.168,-9.518,0.000771,0.000144,-0.000918
5661,1711208882.5420954,8.900414943695068,149.645,-10.172,-12.841,-0.4913,-0.2833,-0.0376,-1.75,2.186,-9.583,0.002583,4.1e-05,9.3e-05
5662,1711208882.5667717,8.92509126663208,149.645,-10.172,-12.843,-0.4895,-0.2844,-0.0375,-1.759,2.171,-9.55,-0.00054,-0.001231,-3.9e-05
5663,1711208882.592025,8.950344562530518,149.644,-10.172,-12.843,-0.4904,-0.2823,-0.0387,-1.749,2.192,-9.53,0.000854,0.001092,0.001109
5664,1711208882.6168706,8.975190162658691,149.642,-10.172,-12.843,-0.4884,-0.2765,-0.0386,-1.769,2.193,-9.557,-2e-05,-0.000263,-0.000545
5665,1711208882.6414573,8.999776840209961,149.639,-10.174,-12.842,-0.4932,-0.2862,-0.0421,-1.761,2.181,-9.571,-0.000486,0.001627,-0.000464
5666,1711208882.666775,9.025094509124756,149.637,-10.173,-12.841,-0.4914,-0.2893,-0.0398,-1.729,2.164,-9.518,0.000225,-7e-05,-0.000919
5667,1711208882.6915164,9.049835920333862,149.637,-10.172,-12.842,-0.4913,-0.2813,-0.0409,-1.751,2.19,-9.556,0.000119,0.000362,0.000292
5668,1711208882.716717,9.075036525726318,149.638,-10.172,-12.84,-0.4895,-0.2844,-0.0353,-1.738,2.199,-9.532,0.002578,0.000112,-0.000585
5669,1711208882.741348,9.0996675491333,149.64,-10.172,-12.841,-0.4913,-0.2853,-0.0409,-1.761,2.172,-9.529,-0.001151,0.001707,0.000475
5670,1711208882.766349,9.124668598175049,149.64,-10.172,-12.84,-0.4895,-0.2834,-0.0353,-1.749,2.172,-9.563,0.001545,0.000807,-0.001449
5671,1711208882.7913218,9.149641275405884,149.64,-10.172,-12.841,-0.4904,-0.2814,-0.042,-1.765,2.181,-9.553,-0.001097,-0.002002,1.6e-05
5672,1711208882.8169017,9.17522120475769,149.638,-10.172,-12.841,-0.4913,-0.2794,-0.0399,-1.778,2.178,-9.531,0.001681,-0.000304,-0.000479
5673,1711208882.842187,9.200506448745728,149.64,-10.174,-12.842,-0.4903,-0.2774,-0.0365,-1.775,2.178,-9.564,8.1e-05,1.3e-05,0.000633
5674,1711208882.8662496,9.224569082260132,149.638,-10.175,-12.841,-0.4903,-0.2794,-0.0387,-1.771,2.185,-9.537,0.001002,0.00024,0.000342
5675,1711208882.8912907,9.249610185623169,149.637,-10.175,-12.842,-0.4932,-0.2872,-0.0399,-1.753,2.23,-9.561,0.002931,-0.000734,0.000843
5676,1711208882.916232,9.274551630020142,149.637,-10.175,-12.843,-0.4895,-0.2834,-0.0419,-1.757,2.174,-9.568,0.001952,0.00067,0.000155
5677,1711208882.9420638,9.30038332939148,149.636,-10.174,-12.842,-0.4941,-0.2832,-0.0378,-1.741,2.18,-9.547,0.00061,0.000739,-0.000312
5678,1711208882.967043,9.32536244392395,149.633,-10.174,-12.843,-0.4885,-0.2814,-0.0364,-1.766,2.176,-9.549,-0.000485,-0.000631,0.000539
5679,1711208882.992029,9.350348472595215,149.632,-10.173,-12.841,-0.4922,-0.2803,-0.0399,-1.75,2.198,-9.569,0.001349,6.4e-05,-0.001966
5680,1711208883.016108,9.374427556991577,149.632,-10.172,-12.841,-0.4866,-0.2775,-0.0385,-1.756,2.165,-9.559,0.002002,-0.001194,-0.002442
5681,1711208883.041963,9.400282621383667,149.634,-10.172,-12.842,-0.4931,-0.2813,-0.0367,-1.755,2.169,-9.568,0.001455,-0.000491,-0.000696
5682,1711208883.0660753,9.424394845962524,149.633,-10.172,-12.842,-0.4895,-0.2853,-0.0364,-1.747,2.182,-9.534,0.000694,0.001279,-0.000205
5683,1711208883.0919678,9.450287342071533,149.632,-10.172,-12.843,-0.4903,-0.2784,-0.0387,-1.758,2.191,-9.549,0.001207,-0.000737,-0.001973
5684,1711208883.1168997,9.475219249725342,149.632,-10.172,-12.841,-0.4904,-0.2853,-0.0343,-1.757,2.193,-9.544,0.004104,-0.001354,2.2e-05
5685,1711208883.1419148,9.500234365463257,149.633,-10.171,-12.842,-0.4904,-0.2833,-0.043,-1.754,2.208,-9.584,0.00207,-0.000536,0.000128
5686,1711208883.166891,9.525210618972778,149.635,-10.171,-12.841,-0.4895,-0.2873,-0.0397,-1.759,2.193,-9.55,-0.000332,0.001254,-0.001091
5687,1711208883.1931727,9.55149221420288,149.634,-10.171,-12.842,-0.4912,-0.2784,-0.0399,-1.776,2.188,-9.53,-0.001573,0.000101,0.001299
5688,1711208883.216894,9.575213432312012,149.633,-10.173,-12.842,-0.4895,-0.2824,-0.0342,-1.775,2.187,-9.516,0.00299,-0.000858,-0.000263
5689,1711208883.2418737,9.60019326210022,149.631,-10.174,-12.842,-0.4914,-0.2893,-0.0387,-1.771,2.176,-9.574,0.000804,0.000396,-0.001396
5690,1711208883.2669966,9.625316143035889,149.63,-10.174,-12.844,-0.4876,-0.2834,-0.044,-1.778,2.202,-9.543,0.00082,-0.000912,0.000276
5691,1711208883.2918758,9.650195360183716,149.627,-10.175,-12.845,-0.4904,-0.2823,-0.0409,-1.78,2.19,-9.501,0.000459,-0.001005,-0.000176
5692,1711208883.317064,9.675383567810059,149.63,-10.177,-12.844,-0.4858,-0.2884,-0.0383,-1.769,2.182,-9.553,0.002364,0.000439,0.000346
5693,1711208883.341824,9.700143575668335,149.628,-10.177,-12.844,-0.4913,-0.2823,-0.0442,-1.787,2.189,-9.558,0.00205,0.000132,-0.000968
5694,1711208883.366865,9.725184440612793,149.627,-10.177,-12.842,-0.4885,-0.2834,-0.0396,-1.769,2.186,-9.547,0.0005,0.002875,-0.000702
5695,1711208883.3917453,9.750064849853516,149.626,-10.177,-12.842,-0.4913,-0.2823,-0.042,-1.741,2.178,-9.575,-0.001806,0.000886,0.000394
5696,1711208883.4170096,9.775329113006592,149.626,-10.175,-12.842,-0.4895,-0.2853,-0.043,-1.752,2.199,-9.53,-0.001799,0.002116,0.000332
5697,1711208883.4421625,9.800482034683228,149.624,-10.175,-12.84,-0.4895,-0.2853,-0.0408,-1.734,2.174,-9.601,0.001013,0.000727,5.3e-05
5698,1711208883.4671028,9.825422286987305,149.624,-10.175,-12.84,-0.4895,-0.2853,-0.0375,-1.77,2.193,-9.564,0.001282,9e-05,0.000797
5699,1711208883.4919183,9.850237846374512,149.627,-10.176,-12.838,-0.4902,-0.2734,-0.0388,-1.785,2.184,-9.58,0.001755,0.001402,-0.0
5700,1711208883.5170112,9.875330686569214,149.629,-10.174,-12.838,-0.4884,-0.2755,-0.0353,-1.745,2.185,-9.542,0.001857,-0.000905,0.001167
5701,1711208883.541704,9.900023460388184,149.629,-10.175,-12.837,-0.4895,-0.2843,-0.0452,-1.756,2.183,-9.535,0.003607,-0.000308,-0.001807
5702,1711208883.5670052,9.92532467842102,149.627,-10.175,-12.838,-0.4894,-0.2824,-0.043,-1.77,2.183,-9.547,0.000953,0.000686,-0.000689
5703,1711208883.5917234,9.950042963027954,149.628,-10.176,-12.838,-0.4904,-0.2863,-0.0397,-1.769,2.181,-9.554,0.000289,0.000209,0.000546
5704,1711208883.6170037,9.97532320022583,149.632,-10.176,-12.839,-0.4876,-0.2824,-0.0374,-1.763,2.197,-9.568,0.00018,-0.00019,6.9e-05
5705,1711208883.6416848,10.000004291534424,149.633,-10.176,-12.84,-0.4922,-0.2833,-0.0443,-1.749,2.178,-9.54,0.000299,3.8e-05,-1.2e-05
5706,1711208883.6669369,10.025256395339966,149.637,-10.177,-12.838,-0.4876,-0.2814,-0.0407,-1.763,2.174,-9.571,0.002041,0.000545,-0.000201
5707,1711208883.6916397,10.049959182739258,149.638,-10.178,-12.84,-0.4895,-0.2853,-0.0441,-1.772,2.191,-9.547,-0.000604,0.000947,-1.5e-05
5708,1711208883.7168775,10.075196981430054,149.638,-10.177,-12.841,-0.4914,-0.2863,-0.0376,-1.76,2.176,-9.532,-0.000844,-0.000602,-0.00079
5709,1711208883.741935,10.100254535675049,149.637,-10.176,-12.841,-0.4913,-0.2853,-0.042,-1.761,2.173,-9.505,-0.001661,4.5e-05,0.001197
5710,1711208883.7668724,10.125191926956177,149.638,-10.177,-12.84,-0.4884,-0.2765,-0.0397,-1.765,2.197,-9.55,0.001673,0.0009,-0.001015
5711,1711208883.791842,10.150161504745483,149.635,-10.177,-12.841,-0.4904,-0.2853,-0.0419,-1.758,2.192,-9.561,0.002178,-0.000291,0.000935
5712,1711208883.816902,10.17522144317627,149.634,-10.176,-12.839,-0.4922,-0.2823,-0.0399,-1.749,2.169,-9.553,0.001764,-0.000847,-0.000441
5713,1711208883.8416386,10.199958086013794,149.633,-10.175,-12.838,-0.4931,-0.2813,-0.0389,-1.738,2.172,-9.551,0.001846,-0.001072,-0.000725
5714,1711208883.8668783,10.225197792053223,149.636,-10.176,-12.838,-0.4913,-0.2833,-0.0354,-1.779,2.167,-9.523,-0.001673,0.000281,-0.000635
5715,1711208883.8915696,10.249889135360718,149.636,-10.176,-12.836,-0.4923,-0.2853,-0.0442,-1.743,2.192,-9.567,0.001923,0.00112,0.000514
5716,1711208883.916463,10.274782419204712,149.638,-10.175,-12.836,-0.4895,-0.2834,-0.0364,-1.77,2.168,-9.538,0.000897,-5.3e-05,0.001514
5717,1711208883.9419775,10.300297021865845,149.64,-10.175,-12.836,-0.4904,-0.2843,-0.0474,-1.727,2.185,-9.579,0.000884,-0.000452,-0.00013
5718,1711208883.966484,10.324803590774536,149.64,-10.175,-12.837,-0.4904,-0.2814,-0.0376,-1.785,2.189,-9.582,0.001032,0.000864,-0.000261
5719,1711208883.9915025,10.349822044372559,149.641,-10.176,-12.838,-0.4903,-0.2784,-0.0387,-1.793,2.197,-9.547,-0.00014,0.000748,0.000258
5720,1711208884.016797,10.37511658668518,149.643,-10.176,-12.84,-0.4912,-0.2794,-0.0421,-1.763,2.192,-9.546,0.001507,-0.000946,0.000593
5721,1711208884.041502,10.399821519851685,149.642,-10.176,-12.84,-0.4922,-0.2783,-0.0421,-1.774,2.202,-9.536,0.00157,-0.001052,0.000311
5722,1711208884.0664632,10.424782752990723,149.641,-10.177,-12.841,-0.4922,-0.2833,-0.0399,-1.759,2.183,-9.545,0.000804,-0.00109,-0.000365
5723,1711208884.09151,10.449829578399658,149.64,-10.178,-12.841,-0.4923,-0.2843,-0.0421,-1.771,2.192,-9.555,0.00057,0.000513,-0.001677
5724,1711208884.1164978,10.474817276000977,149.637,-10.179,-12.842,-0.4877,-0.2874,-0.0428,-1.767,2.165,-9.55,-0.001178,-0.000194,-0.000143
5725,1711208884.1417816,10.500101089477539,149.637,-10.179,-12.841,-0.4914,-0.2873,-0.0442,-1.767,2.17,-9.538,0.000394,-3.5e-05,0.000597
5726,1711208884.1666915,10.52501106262207,149.635,-10.179,-12.841,-0.4904,-0.2863,-0.0386,-1.736,2.154,-9.541,0.000151,-0.00128,0.0003
5727,1711208884.1914668,10.54978632926941,149.636,-10.179,-12.838,-0.4923,-0.2863,-0.0387,-1.75,2.18,-9.553,-0.000505,0.000692,3e-06
5728,1711208884.2166858,10.575005292892456,149.636,-10.179,-12.837,-0.4914,-0.2863,-0.0398,-1.773,2.189,-9.571,0.000806,0.000277,-7.6e-05
5729,1711208884.2413929,10.599712371826172,149.638,-10.18,-12.838,-0.4923,-0.2863,-0.0409,-1.754,2.158,-9.536,-6e-05,0.001159,0.000401
5730,1711208884.2666333,10.624952793121338,149.641,-10.181,-12.836,-0.4895,-0.2853,-0.043,-1.777,2.166,-9.569,0.001151,0.000873,-9.5e-05
5731,1711208884.2916431,10.649962663650513,149.64,-10.179,-12.836,-0.4922,-0.2783,-0.041,-1.755,2.183,-9.567,0.000689,0.001172,0.000278
5732,1711208884.3166773,10.674996852874756,149.64,-10.179,-12.837,-0.4903,-0.2794,-0.0387,-1.772,2.187,-9.588,-0.000242,-8.4e-05,-0.000789
5733,1711208884.3413901,10.69970965385437,149.641,-10.179,-12.838,-0.4922,-0.2833,-0.0388,-1.76,2.2,-9.557,-7.7e-05,4.7e-05,0.000177
5734,1711208884.366559,10.724878549575806,149.643,-10.18,-12.838,-0.4904,-0.2853,-0.0386,-1.772,2.182,-9.541,0.001591,0.001256,0.00036
5735,1711208884.3913255,10.749644994735718,149.642,-10.18,-12.838,-0.4921,-0.2754,-0.0444,-1.741,2.184,-9.568,-5.2e-05,0.000383,-0.000107
5736,1711208884.4162297,10.77454924583435,149.641,-10.179,-12.837,-0.4895,-0.2853,-0.043,-1.782,2.16,-9.559,-0.001373,0.000582,0.00051
5737,1711208884.4421113,10.80043077468872,149.641,-10.178,-12.837,-0.4921,-0.2744,-0.04,-1.761,2.189,-9.532,0.00114,0.000312,0.000879
5738,1711208884.4663966,10.824716091156006,149.643,-10.178,-12.837,-0.4876,-0.2854,-0.0374,-1.781,2.183,-9.577,0.001417,-0.000366,-0.000719
5739,1711208884.4924212,10.850740671157837,149.642,-10.18,-12.838,-0.4932,-0.2882,-0.0388,-1.767,2.19,-9.547,0.001625,-0.000615,0.000749
5740,1711208884.516555,10.874874591827393,149.64,-10.18,-12.836,-0.4895,-0.2834,-0.0386,-1.758,2.152,-9.56,-0.000478,4.5e-05,0.000375
5741,1711208884.5426042,10.900923728942871,149.642,-10.179,-12.835,-0.4913,-0.2823,-0.0398,-1.738,2.157,-9.553,0.000571,-0.00129,0.000291
5742,1711208884.5667222,10.925041675567627,149.644,-10.179,-12.834,-0.4904,-0.2823,-0.042,-1.757,2.18,-9.568,0.002916,0.000792,-0.001284
5743,1711208884.5920315,10.950350999832153,149.641,-10.179,-12.836,-0.4932,-0.2833,-0.0388,-1.782,2.18,-9.545,0.000982,-0.000398,-0.000362
5744,1711208884.6164663,10.974785804748535,149.642,-10.179,-12.838,-0.4895,-0.2834,-0.0397,-1.772,2.195,-9.567,0.001002,-0.001312,0.000761
5745,1711208884.6423666,11.000686168670654,149.643,-10.179,-12.838,-0.4922,-0.2813,-0.041,-1.745,2.161,-9.567,0.000313,0.000578,0.000792
5746,1711208884.6671274,11.025446891784668,149.644,-10.179,-12.838,-0.4914,-0.2863,-0.0365,-1.757,2.185,-9.55,0.000643,-6.1e-05,4.9e-05
5747,1711208884.6919804,11.050299882888794,149.643,-10.18,-12.84,-0.4913,-0.2833,-0.0431,-1.77,2.189,-9.581,0.000349,-0.000531,0.000227
5748,1711208884.7169962,11.075315713882446,149.643,-10.18,-12.841,-0.4885,-0.2824,-0.0386,-1.768,2.198,-9.529,-0.001709,-0.001203,-0.000749
5749,1711208884.741923,11.100242614746094,149.64,-10.18,-12.842,-0.4923,-0.2843,-0.0421,-1.762,2.196,-9.55,0.00024,0.000454,8.7e-05
5750,1711208884.7674572,11.125776767730713,149.638,-10.18,-12.842,-0.4895,-0.2853,-0.0353,-1.76,2.208,-9.542,-0.00088,0.001384,0.000676
5751,1711208884.791876,11.150195598602295,149.637,-10.181,-12.844,-0.4903,-0.2804,-0.0398,-1.776,2.168,-9.529,-0.000797,0.001165,-0.001067
5752,1711208884.8169608,11.175280332565308,149.639,-10.182,-12.844,-0.4885,-0.2824,-0.0331,-1.765,2.164,-9.537,-0.00086,0.000353,-0.000266
5753,1711208884.842621,11.200940608978271,149.637,-10.181,-12.843,-0.4913,-0.2833,-0.0398,-1.775,2.184,-9.546,0.000137,0.001103,0.000268
5754,1711208884.8673806,11.22570013999939,149.637,-10.18,-12.842,-0.4904,-0.2833,-0.0376,-1.744,2.182,-9.565,0.000394,0.00216,-0.00015
5755,1711208884.8922632,11.250582695007324,149.636,-10.18,-12.843,-0.4913,-0.2853,-0.0431,-1.757,2.184,-9.547,-0.000657,-0.001336,-0.001047
5756,1711208884.9170322,11.275351762771606,149.634,-10.181,-12.844,-0.4895,-0.2824,-0.0386,-1.756,2.179,-9.555,-0.0002,0.000876,0.00035
5757,1711208884.9418352,11.300154685974121,149.634,-10.18,-12.842,-0.4913,-0.2843,-0.0376,-1.753,2.168,-9.549,-0.000848,0.000867,-0.000474
5758,1711208884.9669054,11.325224876403809,149.634,-10.18,-12.841,-0.4895,-0.2863,-0.0386,-1.788,2.193,-9.566,-0.002172,0.001335,-0.000289
5759,1711208884.9917834,11.35010290145874,149.633,-10.179,-12.84,-0.4894,-0.2834,-0.0463,-1.746,2.198,-9.549,-0.000155,1.1e-05,0.001555
5760,1711208885.0174377,11.375757217407227,149.631,-10.18,-12.841,-0.4904,-0.2863,-0.0441,-1.795,2.17,-9.526,0.000247,0.000801,-0.000748
5761,1711208885.0421689,11.400488376617432,149.631,-10.181,-12.843,-0.4913,-0.2843,-0.0398,-1.767,2.193,-9.557,0.001138,4.4e-05,0.000423
5762,1711208885.0666826,11.425002098083496,149.633,-10.18,-12.842,-0.4904,-0.2843,-0.0365,-1.743,2.169,-9.544,0.001133,0.000125,-6.2e-05
5763,1711208885.091711,11.45003056526184,149.634,-10.182,-12.842,-0.4922,-0.2793,-0.041,-1.758,2.187,-9.517,0.003153,-0.001216,-0.000255
5764,1711208885.118002,11.476321458816528,149.632,-10.182,-12.842,-0.4904,-0.2814,-0.0398,-1.745,2.186,-9.579,0.00223,-0.000274,-0.001141
5765,1711208885.1417255,11.50004506111145,149.634,-10.181,-12.843,-0.4923,-0.2863,-0.0409,-1.766,2.169,-9.55,-0.000489,-0.000761,-0.000191
5766,1711208885.1677454,11.5260648727417,149.633,-10.182,-12.845,-0.4885,-0.2804,-0.0408,-1.764,2.191,-9.543,-0.000538,-9.1e-05,0.000331
5767,1711208885.1993642,11.55768370628357,149.633,-10.182,-12.845,-0.4913,-0.2823,-0.0387,-1.752,2.204,-9.542,-0.001184,0.000624,0.001636
5768,1711208885.2165735,11.5748929977417,149.633,-10.182,-12.844,-0.4885,-0.2784,-0.0397,-1.776,2.204,-9.515,-0.005828,0.003066,0.002198
5769,1711208885.2416253,11.599944829940796,149.636,-10.182,-12.843,-0.4913,-0.2813,-0.0409,-1.784,2.197,-9.561,0.001068,-0.002425,0.000507
5770,1711208885.2670994,11.625418901443481,149.638,-10.181,-12.841,-0.4895,-0.2834,-0.0375,-1.739,2.172,-9.622,0.009516,-0.004255,-0.001551
5771,1711208885.2916114,11.649930953979492,149.64,-10.179,-12.841,-0.4903,-0.2774,-0.0376,-1.733,2.124,-9.55,0.005034,-0.00393,-0.001335
5772,1711208885.317056,11.67537546157837,149.641,-10.18,-12.842,-0.4912,-0.2774,-0.0377,-1.762,2.163,-9.544,0.004369,-0.003656,-0.00031
5773,1711208885.342508,11.700827598571777,149.642,-10.181,-12.843,-0.4913,-0.2843,-0.042,-1.777,2.186,-9.505,0.002925,0.000687,-0.000532
5774,1711208885.3676958,11.726015329360962,149.643,-10.181,-12.841,-0.4904,-0.2814,-0.0387,-1.764,2.174,-9.573,0.005734,0.00116,-0.001061
5775,1711208885.3915794,11.749898910522461,149.642,-10.179,-12.842,-0.4904,-0.2853,-0.0397,-1.722,2.183,-9.53,0.001955,0.000251,-0.001568
5776,1711208885.4169157,11.775235176086426,149.642,-10.178,-12.84,-0.4886,-0.2844,-0.0385,-1.753,2.165,-9.541,0.00187,-0.000696,-0.000215
5777,1711208885.4415426,11.799862146377563,149.641,-10.179,-12.84,-0.4895,-0.2834,-0.0386,-1.81,2.158,-9.495,-0.004198,0.001847,0.000557
5778,1711208885.467239,11.825558423995972,149.641,-10.181,-12.84,-0.4895,-0.2853,-0.0419,-1.78,2.198,-9.579,-0.001853,0.002916,0.000647
5779,1711208885.4915278,11.849847316741943,149.641,-10.18,-12.84,-0.4922,-0.2793,-0.0432,-1.76,2.18,-9.561,-0.001155,0.000574,0.001305
5780,1711208885.5164373,11.874756813049316,149.642,-10.179,-12.839,-0.4904,-0.2843,-0.0332,-1.724,2.188,-9.571,0.001627,-0.000998,-8.1e-05
5781,1711208885.54147,11.899789571762085,149.641,-10.179,-12.836,-0.4848,-0.2785,-0.0406,-1.756,2.164,-9.557,0.004667,-0.001822,4.7e-05
5782,1711208885.5672698,11.925589323043823,149.64,-10.181,-12.835,-0.4885,-0.2834,-0.0353,-1.758,2.173,-9.572,0.005364,-0.001771,-0.002189
5783,1711208885.5915544,11.949873924255371,149.641,-10.182,-12.837,-0.4894,-0.2794,-0.0397,-1.784,2.184,-9.51,0.000849,-0.000679,-0.000478
5784,1711208885.6170497,11.975369215011597,149.637,-10.181,-12.837,-0.4885,-0.2834,-0.0363,-1.755,2.181,-9.522,-0.000291,0.000679,-0.000894
5785,1711208885.6421804,12.000499963760376,149.635,-10.18,-12.839,-0.4895,-0.2873,-0.0418,-1.76,2.2,-9.546,-0.000113,0.001049,-0.000132
5786,1711208885.6668785,12.025197982788086,149.633,-10.179,-12.838,-0.4895,-0.2873,-0.0364,-1.756,2.174,-9.524,-0.006738,0.002913,0.000409
5787,1711208885.6914823,12.04980182647705,149.634,-10.18,-12.838,-0.4904,-0.2814,-0.0409,-1.763,2.21,-9.581,-0.004571,0.003043,0.00161
5788,1711208885.716839,12.075158596038818,149.634,-10.179,-12.837,-0.4895,-0.2834,-0.0331,-1.766,2.185,-9.551,-0.003668,0.003552,0.001723
5789,1711208885.7413955,12.099714994430542,149.634,-10.179,-12.837,-0.4904,-0.2823,-0.0453,-1.786,2.187,-9.557,-0.003576,0.00131,0.001084
5790,1711208885.7667599,12.12507939338684,149.634,-10.179,-12.838,-0.4904,-0.2824,-0.0365,-1.783,2.185,-9.529,0.000195,0.000888,-8e-06
5791,1711208885.7913764,12.149695873260498,149.633,-10.178,-12.838,-0.4904,-0.2833,-0.0398,-1.745,2.193,-9.561,-0.002492,0.001396,0.000729
5792,1711208885.8162766,12.174596071243286,149.631,-10.178,-12.838,-0.4894,-0.2794,-0.0354,-1.771,2.203,-9.566,0.001211,0.003364,2.9e-05
5793,1711208885.8413653,12.199684858322144,149.63,-10.179,-12.838,-0.4904,-0.2833,-0.0409,-1.786,2.183,-9.542,-0.000136,-0.000821,-0.001148
5794,1711208885.8669348,12.22525429725647,149.631,-10.18,-12.837,-0.4895,-0.2844,-0.0386,-1.76,2.18,-9.559,0.002693,0.001053,-0.000999
5795,1711208885.892117,12.250436544418335,149.629,-10.181,-12.837,-0.4914,-0.2863,-0.042,-1.775,2.193,-9.536,0.000364,0.001837,0.000578
5796,1711208885.9163446,12.274664163589478,149.627,-10.18,-12.837,-0.4905,-0.2873,-0.0386,-1.747,2.191,-9.561,0.001104,0.001637,-5.4e-05
5797,1711208885.9413137,12.299633264541626,149.626,-10.177,-12.837,-0.4913,-0.2833,-0.0365,-1.764,2.181,-9.563,0.000933,0.000846,0.000371
5798,1711208885.9713688,12.329688310623169,149.623,-10.176,-12.837,-0.4885,-0.2814,-0.0364,-1.731,2.192,-9.516,0.001267,0.001108,0.000683
5799,1711208885.992088,12.350407600402832,149.626,-10.175,-12.837,-0.4923,-0.2843,-0.0399,-1.769,2.203,-9.562,-0.001576,0.000254,-0.000315
5800,1711208886.017476,12.375795602798462,149.623,-10.176,-12.837,-0.4885,-0.2804,-0.0397,-1.78,2.16,-9.545,-0.001382,0.000852,4.5e-05
5801,1711208886.04271,12.401029586791992,149.624,-10.177,-12.837,-0.4904,-0.2863,-0.0375,-1.797,2.19,-9.548,-0.002348,0.00221,0.001597
5802,1711208886.0665953,12.424914836883545,149.624,-10.177,-12.838,-0.4875,-0.2765,-0.0364,-1.766,2.18,-9.544,-0.001074,0.002653,0.000869
5803,1711208886.0920734,12.450392961502075,149.627,-10.176,-12.838,-0.4913,-0.2823,-0.0365,-1.749,2.192,-9.533,4.7e-05,0.000133,0.0006
5804,1711208886.11666,12.474979639053345,149.626,-10.174,-12.84,-0.4904,-0.2843,-0.0419,-1.734,2.179,-9.582,-0.000199,0.001353,-0.001025
5805,1711208886.1422474,12.500566959381104,149.625,-10.174,-12.837,-0.4895,-0.2834,-0.0386,-1.752,2.178,-9.552,0.000849,-0.002443,-0.001555
5806,1711208886.1669476,12.525267124176025,149.627,-10.175,-12.836,-0.4885,-0.2824,-0.0364,-1.777,2.172,-9.55,0.002059,0.000276,-0.001306
5807,1711208886.1920083,12.550327777862549,149.629,-10.175,-12.835,-0.4905,-0.2873,-0.0386,-1.786,2.175,-9.534,0.001115,-0.000186,0.000116
5808,1711208886.2170033,12.57532286643982,149.628,-10.173,-12.834,-0.4913,-0.2813,-0.0376,-1.733,2.173,-9.575,0.000836,0.001872,0.000556
5809,1711208886.2419436,12.600263118743896,149.628,-10.171,-12.836,-0.4904,-0.2853,-0.043,-1.749,2.198,-9.55,-0.003158,0.001158,-0.000297
5810,1711208886.2683399,12.626659393310547,149.63,-10.171,-12.837,-0.4876,-0.2854,-0.0385,-1.749,2.177,-9.54,-0.001081,-6.3e-05,-0.00017
5811,1711208886.2919075,12.650227069854736,149.63,-10.174,-12.837,-0.4904,-0.2843,-0.043,-1.769,2.193,-9.552,0.000421,-0.001658,-0.0011
5812,1711208886.3171284,12.675447940826416,149.628,-10.177,-12.836,-0.4885,-0.2804,-0.0375,-1.772,2.145,-9.533,0.002809,-0.001165,-0.00119
5813,1711208886.341958,12.70027756690979,149.627,-10.176,-12.837,-0.4904,-0.2823,-0.0409,-1.765,2.184,-9.506,-0.001525,0.000271,-0.000206
5814,1711208886.3671005,12.725419998168945,149.628,-10.175,-12.838,-0.4876,-0.2794,-0.0385,-1.736,2.173,-9.545,-0.002673,0.001576,2e-06
5815,1711208886.3918805,12.750200033187866,149.63,-10.175,-12.837,-0.4876,-0.2834,-0.0374,-1.751,2.178,-9.522,-0.000393,-0.000125,0.001087
5816,1711208886.4167984,12.775117874145508,149.629,-10.177,-12.838,-0.4894,-0.2794,-0.0386,-1.774,2.169,-9.553,0.001163,-0.001672,-0.000603
5817,1711208886.441823,12.800142526626587,149.63,-10.179,-12.836,-0.4895,-0.2853,-0.0441,-1.784,2.171,-9.57,0.002537,-0.001382,-0.00041
5818,1711208886.4667451,12.825064659118652,149.633,-10.178,-12.837,-0.4904,-0.2833,-0.0387,-1.746,2.181,-9.572,0.001303,0.001219,3.8e-05
5819,1711208886.4921541,12.850473642349243,149.635,-10.177,-12.837,-0.4941,-0.2852,-0.0455,-1.738,2.195,-9.56,-0.000824,0.000399,0.000354
5820,1711208886.5184093,12.876728773117065,149.635,-10.176,-12.836,-0.4885,-0.2804,-0.0364,-1.74,2.202,-9.543,0.001547,0.000238,0.000374
5821,1711208886.5423336,12.90065312385559,149.633,-10.177,-12.836,-0.4894,-0.2814,-0.0386,-1.767,2.167,-9.556,0.002152,-0.002961,-0.000537
5822,1711208886.567157,12.925476551055908,149.633,-10.178,-12.836,-0.4885,-0.2804,-0.0364,-1.767,2.192,-9.577,8.2e-05,0.001958,-0.000342
5823,1711208886.5922873,12.95060682296753,149.633,-10.179,-12.835,-0.4904,-0.2863,-0.0375,-1.775,2.183,-9.55,-0.001368,0.001258,0.000895
5824,1711208886.616896,12.975215435028076,149.633,-10.179,-12.835,-0.4913,-0.2823,-0.0387,-1.736,2.192,-9.556,5.4e-05,0.001329,0.000567
5825,1711208886.6416779,12.99999737739563,149.634,-10.177,-12.834,-0.4895,-0.2844,-0.0408,-1.751,2.179,-9.543,9.6e-05,-0.000629,-0.000299
5826,1711208886.6666765,13.024996042251587,149.631,-10.178,-12.834,-0.4895,-0.2863,-0.0353,-1.774,2.188,-9.546,-0.00198,0.00082,-0.000428
5827,1711208886.6916645,13.049983978271484,149.633,-10.18,-12.833,-0.4904,-0.2853,-0.0441,-1.792,2.184,-9.572,0.002282,-0.000877,0.000648
5828,1711208886.716749,13.075068473815918,149.633,-10.181,-12.834,-0.4885,-0.2784,-0.0364,-1.792,2.167,-9.541,-0.002201,-0.000475,0.001196
5829,1711208886.7416606,13.099980115890503,149.634,-10.181,-12.835,-0.4904,-0.2833,-0.042,-1.755,2.179,-9.523,-0.000813,0.001389,0.001044
5830,1711208886.766894,13.125213623046875,149.632,-10.177,-12.833,-0.4904,-0.2843,-0.0387,-1.752,2.158,-9.566,-0.000457,-3.6e-05,-0.000835
5831,1711208886.7916923,13.150011777877808,149.631,-10.176,-12.831,-0.4913,-0.2803,-0.0388,-1.716,2.188,-9.56,0.004699,-0.000754,0.000442
5832,1711208886.8166294,13.174948930740356,149.634,-10.177,-12.831,-0.4904,-0.2824,-0.0365,-1.754,2.205,-9.582,0.003853,-0.003459,-0.000384
5833,1711208886.841647,13.199966430664062,149.634,-10.177,-12.832,-0.4904,-0.2843,-0.0397,-1.786,2.168,-9.546,-0.001081,-0.000579,0.000201
5834,1711208886.8668144,13.225133895874023,149.634,-10.177,-12.831,-0.4885,-0.2804,-0.0353,-1.759,2.156,-9.587,0.003844,0.001299,0.000621
5835,1711208886.8916316,13.249951124191284,149.637,-10.176,-12.832,-0.4912,-0.2784,-0.0399,-1.778,2.195,-9.543,0.001223,-0.00071,0.000785
5836,1711208886.9177523,13.276071786880493,149.638,-10.175,-12.828,-0.4895,-0.2844,-0.0353,-1.772,2.152,-9.58,0.00414,-0.000906,-0.00046
5837,1711208886.9415722,13.299891710281372,149.638,-10.174,-12.829,-0.4886,-0.2893,-0.0363,-1.766,2.19,-9.566,-0.000481,0.00102,-0.000563
5838,1711208886.966788,13.32510757446289,149.639,-10.175,-12.831,-0.4875,-0.2765,-0.0342,-1.783,2.162,-9.53,-0.00356,0.001289,-0.000429
5839,1711208886.9915695,13.349889039993286,149.641,-10.176,-12.83,-0.4923,-0.2873,-0.0442,-1.775,2.189,-9.554,-0.002065,0.000489,0.001272
5840,1711208887.01701,13.375329494476318,149.639,-10.175,-12.83,-0.4896,-0.2893,-0.0396,-1.783,2.152,-9.563,-0.002392,0.000466,0.000435
5841,1711208887.0415242,13.399843692779541,149.638,-10.173,-12.828,-0.4923,-0.2892,-0.0365,-1.765,2.179,-9.569,-0.001473,0.00191,0.000112
5842,1711208887.066787,13.425106525421143,149.636,-10.172,-12.825,-0.4894,-0.2814,-0.0386,-1.719,2.162,-9.561,-0.002117,0.002551,-0.000432
5843,1711208887.0917149,13.450034379959106,149.638,-10.173,-12.827,-0.4903,-0.2764,-0.0409,-1.774,2.193,-9.555,-0.000329,0.001485,0.00044
5844,1711208887.116734,13.475053548812866,149.639,-10.174,-12.828,-0.4904,-0.2833,-0.031,-1.789,2.179,-9.534,-0.000701,-0.001041,0.001326
5845,1711208887.1417496,13.50006914138794,149.638,-10.175,-12.828,-0.4914,-0.2873,-0.0387,-1.762,2.19,-9.559,0.000475,0.00175,0.000752
5846,1711208887.1664767,13.5247962474823,149.636,-10.176,-12.829,-0.4913,-0.2823,-0.0354,-1.748,2.17,-9.583,2.1e-05,0.000619,0.000563
5847,1711208887.191441,13.549760580062866,149.635,-10.174,-12.828,-0.4904,-0.2814,-0.0365,-1.739,2.164,-9.533,-0.002796,0.000621,-0.000788
5848,1711208887.2164419,13.574761390686035,149.633,-10.175,-12.826,-0.4867,-0.2834,-0.0362,-1.767,2.167,-9.553,0.000552,0.000169,-3.1e-05
5849,1711208887.2415187,13.599838256835938,149.632,-10.174,-12.827,-0.4895,-0.2834,-0.043,-1.749,2.203,-9.582,-1e-05,0.001646,0.000142
5850,1711208887.2663774,13.624696969985962,149.633,-10.174,-12.828,-0.4913,-0.2833,-0.0343,-1.748,2.192,-9.562,-0.002131,-0.000201,-0.000365
5851,1711208887.2913964,13.649715900421143,149.633,-10.174,-12.829,-0.4913,-0.2794,-0.0366,-1.747,2.199,-9.539,0.000562,0.000921,0.000268
5852,1711208887.3163385,13.674658060073853,149.633,-10.174,-12.829,-0.4895,-0.2853,-0.0353,-1.753,2.194,-9.553,8.6e-05,0.000395,0.000788
5853,1711208887.3414629,13.699782371520996,149.63,-10.175,-12.827,-0.4904,-0.2833,-0.0365,-1.774,2.169,-9.547,-0.000385,-0.00074,0.000718
5854,1711208887.366354,13.724673509597778,149.631,-10.176,-12.826,-0.4877,-0.2874,-0.0351,-1.757,2.173,-9.546,9.8e-05,0.000839,-7.4e-05
5855,1711208887.3922908,13.7506103515625,149.628,-10.176,-12.824,-0.4876,-0.2854,-0.0396,-1.759,2.154,-9.545,0.000858,0.00111,3.2e-05
5856,1711208887.4163115,13.774631023406982,149.629,-10.173,-12.823,-0.4903,-0.2754,-0.0398,-1.751,2.179,-9.564,0.00067,6.3e-05,1.7e-05
5857,1711208887.4414597,13.799779176712036,149.629,-10.172,-12.823,-0.4904,-0.2843,-0.0419,-1.751,2.185,-9.525,-0.000296,0.00224,-0.000608
5858,1711208887.466248,13.824567556381226,149.63,-10.172,-12.824,-0.4876,-0.2844,-0.0352,-1.759,2.204,-9.565,0.001537,-0.000568,-0.00025
5859,1711208887.4913805,13.849699974060059,149.629,-10.172,-12.826,-0.4894,-0.2774,-0.042,-1.765,2.176,-9.569,-0.000511,-0.001091,-0.000189
5860,1711208887.5162637,13.87458324432373,149.629,-10.173,-12.825,-0.4876,-0.2854,-0.0385,-1.778,2.173,-9.552,0.002708,0.000461,0.000266
5861,1711208887.5412664,13.899585962295532,149.63,-10.173,-12.824,-0.4885,-0.2794,-0.0375,-1.759,2.168,-9.525,0.001708,-0.000108,-0.000657
5862,1711208887.5664642,13.924783706665039,149.629,-10.171,-12.823,-0.4877,-0.2854,-0.0363,-1.747,2.169,-9.546,0.00085,0.00066,0.0013
5863,1711208887.592617,13.950936555862427,149.625,-10.17,-12.824,-0.4895,-0.2834,-0.0364,-1.775,2.187,-9.544,-0.0009,0.000993,-0.000614
5864,1711208887.6162174,13.974536895751953,149.622,-10.17,-12.824,-0.4877,-0.2864,-0.0341,-1.775,2.18,-9.581,0.000616,0.000677,-0.002035
5865,1711208887.6421397,14.00045919418335,149.622,-10.171,-12.825,-0.4904,-0.2814,-0.042,-1.773,2.169,-9.58,-0.000457,0.000883,-4.6e-05
5866,1711208887.6662204,14.024539947509766,149.622,-10.171,-12.824,-0.4886,-0.2854,-0.0341,-1.778,2.154,-9.547,-0.001162,0.002029,0.000914
5867,1711208887.6921287,14.050448179244995,149.623,-10.171,-12.822,-0.4886,-0.2854,-0.0407,-1.729,2.158,-9.566,-0.001031,0.000493,0.000251
5868,1711208887.7161856,14.074505090713501,149.622,-10.171,-12.822,-0.4867,-0.2815,-0.0363,-1.738,2.188,-9.549,-0.000135,0.000896,-6.9e-05
5869,1711208887.7419784,14.100297927856445,149.621,-10.17,-12.823,-0.4913,-0.2803,-0.0388,-1.757,2.18,-9.57,0.000909,0.000869,-0.00013
5870,1711208887.7669768,14.125296354293823,149.62,-10.169,-12.823,-0.4886,-0.2873,-0.0352,-1.729,2.171,-9.553,0.006314,0.00081,-0.000785
5871,1711208887.7920468,14.150366306304932,149.618,-10.168,-12.824,-0.4905,-0.2873,-0.0386,-1.728,2.184,-9.533,-0.000873,-0.000518,-0.000208
5872,1711208887.8169434,14.175262928009033,149.615,-10.167,-12.824,-0.4886,-0.2834,-0.032,-1.769,2.197,-9.542,0.003627,-0.000528,0.000151
5873,1711208887.8419383,14.200257778167725,149.616,-10.169,-12.822,-0.4904,-0.2873,-0.043,-1.752,2.159,-9.52,0.003659,-0.002627,-0.000994
5874,1711208887.8678243,14.226143836975098,149.615,-10.169,-12.824,-0.4857,-0.2815,-0.0329,-1.753,2.161,-9.541,-0.000423,0.000189,-0.000549
5875,1711208887.8918972,14.250216722488403,149.616,-10.168,-12.823,-0.4895,-0.2853,-0.0364,-1.764,2.151,-9.557,-0.000155,0.002286,0.001052
5876,1711208887.9168322,14.27515172958374,149.615,-10.168,-12.823,-0.4886,-0.2893,-0.0363,-1.763,2.171,-9.525,-0.000529,0.001987,0.00159
5877,1711208887.9417944,14.300113916397095,149.617,-10.167,-12.824,-0.4886,-0.2844,-0.0385,-1.765,2.145,-9.514,-0.002032,0.001454,0.000886
5878,1711208887.9667728,14.325092315673828,149.614,-10.167,-12.823,-0.4867,-0.2815,-0.0341,-1.751,2.169,-9.536,-0.001138,-0.000231,-0.00012
5879,1711208887.9918168,14.350136280059814,149.613,-10.168,-12.823,-0.4913,-0.2813,-0.042,-1.777,2.189,-9.601,-0.001974,0.001235,-0.00063
5880,1711208888.0168128,14.375132322311401,149.611,-10.169,-12.821,-0.4876,-0.2834,-0.033,-1.766,2.18,-9.592,-0.002256,0.000872,-0.000468
5881,1711208888.0417635,14.400083065032959,149.611,-10.168,-12.821,-0.4914,-0.2883,-0.0365,-1.742,2.174,-9.563,4e-05,0.001094,0.000328
5882,1711208888.0667338,14.425053358078003,149.611,-10.167,-12.822,-0.4876,-0.2814,-0.0352,-1.754,2.172,-9.509,0.00292,-0.001075,-0.000995
5883,1711208888.09178,14.450099468231201,149.611,-10.167,-12.822,-0.4885,-0.2814,-0.0397,-1.757,2.185,-9.58,0.003318,-0.000794,-0.000725
5884,1711208888.1166625,14.474982023239136,149.607,-10.166,-12.823,-0.4877,-0.2854,-0.0352,-1.773,2.154,-9.546,-8e-05,-0.001344,-0.001598
5885,1711208888.1416967,14.500016212463379,149.607,-10.168,-12.821,-0.4876,-0.2814,-0.0374,-1.771,2.179,-9.546,0.000388,0.001,0.000437
5886,1711208888.1666203,14.524939775466919,149.609,-10.168,-12.822,-0.4877,-0.2884,-0.0395,-1.749,2.174,-9.539,-8.5e-05,6.5e-05,-7.9e-05
5887,1711208888.1916225,14.549942016601562,149.606,-10.168,-12.82,-0.4896,-0.2903,-0.0374,-1.786,2.162,-9.601,-0.000639,0.001425,0.001391
5888,1711208888.2166622,14.574981689453125,149.607,-10.169,-12.821,-0.4876,-0.2834,-0.0374,-1.759,2.196,-9.544,-0.001291,0.00105,0.000514
5889,1711208888.2416437,14.599963188171387,149.606,-10.169,-12.822,-0.4894,-0.2794,-0.0397,-1.762,2.169,-9.537,-0.000733,0.000506,-0.00073
5890,1711208888.2666113,14.62493085861206,149.605,-10.169,-12.821,-0.4895,-0.2873,-0.0342,-1.749,2.199,-9.55,0.001755,0.000157,-9e-06
5891,1711208888.2918923,14.650211811065674,149.602,-10.167,-12.821,-0.4886,-0.2893,-0.033,-1.772,2.193,-9.548,0.0013,0.000488,-0.001013
5892,1711208888.3165975,14.674916982650757,149.601,-10.169,-12.821,-0.4895,-0.2883,-0.0364,-1.759,2.218,-9.553,0.003391,-0.000322,-0.000826
5893,1711208888.3416293,14.699948787689209,149.6,-10.169,-12.822,-0.4904,-0.2863,-0.0408,-1.761,2.188,-9.547,0.000786,-0.00159,0.000711
5894,1711208888.3665967,14.724916219711304,149.6,-10.167,-12.822,-0.4895,-0.2844,-0.0364,-1.737,2.158,-9.532,0.001295,0.000542,0.000485
5895,1711208888.3916142,14.74993371963501,149.601,-10.165,-12.821,-0.4876,-0.2814,-0.0363,-1.732,2.197,-9.57,0.001635,0.000997,0.001105
5896,1711208888.4165828,14.77490234375,149.599,-10.165,-12.822,-0.4877,-0.2854,-0.0352,-1.763,2.201,-9.557,-0.000674,0.001056,9.3e-05
5897,1711208888.441626,14.799945592880249,149.597,-10.166,-12.823,-0.4886,-0.2864,-0.0363,-1.766,2.168,-9.522,0.000103,-0.000609,-0.000592
5898,1711208888.466847,14.825166463851929,149.596,-10.165,-12.822,-0.4866,-0.2785,-0.0363,-1.734,2.184,-9.59,-0.000603,-0.000559,-0.001128
5899,1711208888.4917605,14.850080013275146,149.595,-10.167,-12.821,-0.4886,-0.2844,-0.0352,-1.765,2.174,-9.545,0.002778,0.000265,0.000101
5900,1711208888.5165892,14.874908685684204,149.596,-10.168,-12.82,-0.4886,-0.2864,-0.0341,-1.787,2.18,-9.534,0.002372,-0.000255,-0.000663
5901,1711208888.541557,14.899876594543457,149.595,-10.167,-12.819,-0.4876,-0.2824,-0.0429,-1.762,2.189,-9.579,0.000685,0.001059,-0.000718
5902,1711208888.5670297,14.925349235534668,149.595,-10.167,-12.821,-0.4894,-0.2814,-0.0342,-1.762,2.2,-9.562,0.000617,-0.00059,-0.000753
5903,1711208888.5916784,14.949997901916504,149.595,-10.166,-12.821,-0.4894,-0.2784,-0.0376,-1.794,2.168,-9.551,0.000626,0.000461,-0.0004
5904,1711208888.618516,14.976835489273071,149.594,-10.167,-12.821,-0.4885,-0.2804,-0.0375,-1.769,2.195,-9.558,0.000174,0.001153,-0.000899
5905,1711208888.6415,14.99981951713562,149.591,-10.167,-12.822,-0.4877,-0.2884,-0.0318,-1.759,2.165,-9.521,-0.00053,0.001062,5.9e-05
5906,1711208888.6666138,15.024933338165283,149.591,-10.168,-12.821,-0.4895,-0.2853,-0.0342,-1.771,2.152,-9.547,0.00014,5.7e-05,-0.000847
5907,1711208888.6915464,15.049865961074829,149.589,-10.169,-12.82,-0.4905,-0.2893,-0.0408,-1.763,2.193,-9.579,0.001188,0.001695,0.000834
5908,1711208888.7164364,15.074755907058716,149.589,-10.167,-12.822,-0.4858,-0.2844,-0.0373,-1.743,2.179,-9.519,3.7e-05,7.2e-05,0.001031
5909,1711208888.7416668,15.09998631477356,149.587,-10.166,-12.822,-0.4886,-0.2844,-0.0374,-1.757,2.183,-9.547,-0.001642,0.000963,0.000927
5910,1711208888.76652,15.124839544296265,149.588,-10.165,-12.82,-0.4885,-0.2814,-0.0342,-1.747,2.176,-9.552,0.000516,-1.9e-05,0.000378
5911,1711208888.7915268,15.149846315383911,149.59,-10.167,-12.823,-0.4895,-0.2863,-0.0408,-1.753,2.192,-9.562,-0.000641,0.000669,-0.000471
5912,1711208888.8167434,15.175062894821167,149.59,-10.168,-12.822,-0.4885,-0.2824,-0.0397,-1.773,2.17,-9.555,0.000225,-0.00087,0.001475
5913,1711208888.8417435,15.200062990188599,149.59,-10.168,-12.821,-0.4887,-0.2913,-0.0428,-1.748,2.17,-9.564,-0.001081,0.001471,-0.00019
5914,1711208888.8663828,15.22470235824585,149.588,-10.168,-12.822,-0.4885,-0.2834,-0.0374,-1.771,2.184,-9.562,0.000343,0.00207,0.000715
5915,1711208888.89144,15.249759435653687,149.589,-10.168,-12.821,-0.4895,-0.2853,-0.0375,-1.752,2.173,-9.548,0.001246,-0.000421,-0.000738
5916,1711208888.9169037,15.27522325515747,149.589,-10.167,-12.822,-0.4904,-0.2853,-0.0353,-1.761,2.177,-9.558,0.003569,-0.000145,0.000781
5917,1711208888.9415505,15.299870014190674,149.59,-10.168,-12.822,-0.4895,-0.2844,-0.0375,-1.786,2.166,-9.557,0.002517,-0.001162,-0.000273
5918,1711208888.9665782,15.324897766113281,149.589,-10.169,-12.822,-0.4867,-0.2805,-0.0341,-1.758,2.16,-9.51,0.000978,-0.001519,-0.000131
5919,1711208888.9913929,15.349712371826172,149.589,-10.171,-12.822,-0.4886,-0.2844,-0.032,-1.803,2.179,-9.55,0.00099,-0.000633,-0.000375
5920,1711208889.0167437,15.375063180923462,149.59,-10.171,-12.822,-0.4858,-0.2874,-0.0372,-1.753,2.19,-9.537,0.000366,0.000944,0.000366
5921,1711208889.0413582,15.399677753448486,149.589,-10.17,-12.823,-0.4895,-0.2853,-0.0386,-1.754,2.188,-9.536,0.000236,-3.8e-05,0.000266
5922,1711208889.06637,15.424689531326294,149.589,-10.17,-12.822,-0.4894,-0.2804,-0.0375,-1.747,2.174,-9.587,-0.000969,0.001344,0.001023
5923,1711208889.0912926,15.449612140655518,149.591,-10.169,-12.823,-0.4914,-0.2893,-0.0419,-1.758,2.181,-9.545,-0.000603,0.001231,0.001942
5924,1711208889.1166613,15.47498083114624,149.59,-10.171,-12.824,-0.4867,-0.2815,-0.0308,-1.788,2.191,-9.505,-0.000549,0.000257,0.000653
5925,1711208889.1416774,15.499996900558472,149.589,-10.171,-12.823,-0.4905,-0.2893,-0.0342,-1.746,2.161,-9.533,-0.000552,3.8e-05,-0.000677
5926,1711208889.1664836,15.524803161621094,149.588,-10.172,-12.822,-0.4867,-0.2815,-0.0374,-1.771,2.169,-9.551,0.001766,-7.2e-05,-0.000443
5927,1711208889.191266,15.549585580825806,149.589,-10.172,-12.821,-0.4895,-0.2834,-0.0375,-1.767,2.179,-9.584,0.000505,0.000374,0.000587
5928,1711208889.2166586,15.574978113174438,149.587,-10.172,-12.822,-0.4894,-0.2814,-0.0342,-1.777,2.181,-9.522,0.001278,0.000304,0.0006
5929,1711208889.2422743,15.60059380531311,149.588,-10.172,-12.821,-0.4885,-0.2824,-0.0353,-1.759,2.18,-9.55,0.002121,-7.7e-05,-0.001392
5930,1711208889.2665741,15.62489366531372,149.589,-10.171,-12.823,-0.4858,-0.2854,-0.0351,-1.773,2.182,-9.554,0.000774,0.000624,-0.000686
5931,1711208889.2920842,15.65040373802185,149.589,-10.172,-12.823,-0.4895,-0.2873,-0.0364,-1.789,2.205,-9.57,0.000518,-0.00057,-0.000666
5932,1711208889.3206463,15.67896580696106,149.59,-10.172,-12.823,-0.4867,-0.2864,-0.0362,-1.741,2.177,-9.541,-0.000789,-0.000318,0.000238
5933,1711208889.3420131,15.700332641601562,149.588,-10.173,-12.821,-0.4895,-0.2834,-0.0397,-1.766,2.156,-9.554,-0.000425,0.000458,0.000647
5934,1711208889.366988,15.72530746459961,149.588,-10.173,-12.821,-0.4876,-0.2794,-0.0363,-1.744,2.186,-9.537,-0.001385,0.000805,4e-05
5935,1711208889.391947,15.750266551971436,149.586,-10.173,-12.821,-0.4904,-0.2833,-0.0354,-1.771,2.142,-9.537,-0.000271,0.000745,-0.000564
5936,1711208889.416916,15.775235414505005,149.584,-10.173,-12.82,-0.4913,-0.2813,-0.0333,-1.757,2.185,-9.556,-0.000137,-0.000702,-0.000627
5937,1711208889.4419415,15.8002610206604,149.584,-10.172,-12.821,-0.4904,-0.2824,-0.0354,-1.761,2.182,-9.565,-0.000228,-0.00025,2.4e-05
5938,1711208889.4689472,15.827266693115234,149.583,-10.173,-12.821,-0.4858,-0.2835,-0.0373,-1.777,2.188,-9.537,0.000144,0.000317,-0.000664
5939,1711208889.4922016,15.850521087646484,149.581,-10.174,-12.822,-0.4895,-0.2834,-0.0375,-1.773,2.177,-9.553,-8.1e-05,-0.001041,0.000114
5940,1711208889.517137,15.87545657157898,149.58,-10.175,-12.822,-0.4867,-0.2815,-0.0363,-1.78,2.157,-9.572,0.000643,9.2e-05,0.000575
5941,1711208889.5420408,15.900360345840454,149.581,-10.174,-12.821,-0.4895,-0.2844,-0.0375,-1.742,2.183,-9.56,-6.6e-05,0.000286,0.000178
5942,1711208889.5667965,15.925116062164307,149.581,-10.171,-12.822,-0.4867,-0.2815,-0.0352,-1.755,2.18,-9.536,-0.001088,-7.3e-05,0.000733
5943,1711208889.5921369,15.950456380844116,149.581,-10.17,-12.823,-0.4895,-0.2853,-0.0386,-1.771,2.178,-9.529,0.0155,-0.005163,-0.002303
5944,1711208889.616837,15.975156545639038,149.581,-10.17,-12.825,-0.4886,-0.2844,-0.032,-1.769,2.18,-9.533,0.00053,0.000371,-0.000837
5945,1711208889.6421366,16.00045609474182,149.581,-10.171,-12.824,-0.4885,-0.2824,-0.0375,-1.782,2.192,-9.532,0.002187,-0.000149,-0.001529
5946,1711208889.6692073,16.02752685546875,149.58,-10.172,-12.823,-0.4867,-0.2854,-0.0351,-1.754,2.18,-9.582,0.00139,0.00016,-0.000981
5947,1711208889.691819,16.050138473510742,149.581,-10.172,-12.824,-0.4895,-0.2844,-0.0375,-1.735,2.153,-9.532,0.000387,-0.000168,0.0
5948,1711208889.7169285,16.07524800300598,149.579,-10.171,-12.824,-0.4886,-0.2854,-0.0396,-1.777,2.192,-9.529,0.000657,0.001532,0.000224
5949,1711208889.7420094,16.10032892227173,149.582,-10.171,-12.825,-0.4877,-0.2884,-0.0406,-1.755,2.193,-9.563,-0.000122,0.00061,-6.6e-05
5950,1711208889.7669628,16.125282287597656,149.582,-10.172,-12.825,-0.4867,-0.2805,-0.033,-1.777,2.184,-9.54,0.000655,-0.000799,0.000118
5951,1711208889.7916493,16.14996886253357,149.581,-10.173,-12.825,-0.4895,-0.2824,-0.0375,-1.759,2.189,-9.516,-0.001529,0.001884,-0.000468
5952,1711208889.8171008,16.17542028427124,149.581,-10.174,-12.825,-0.4876,-0.2844,-0.0396,-1.759,2.169,-9.547,0.000557,-0.000149,-0.001014
5953,1711208889.8416824,16.20000195503235,149.58,-10.174,-12.824,-0.4886,-0.2873,-0.0396,-1.747,2.176,-9.582,0.001632,0.000685,-0.000221
5954,1711208889.8670328,16.22535228729248,149.579,-10.173,-12.824,-0.4904,-0.2814,-0.0365,-1.741,2.172,-9.549,-7.1e-05,-0.000851,-0.000331
5955,1711208889.8916688,16.249988317489624,149.58,-10.172,-12.824,-0.4914,-0.2853,-0.0332,-1.743,2.2,-9.522,0.001255,0.001282,-0.00056
5956,1711208889.9167829,16.275102376937866,149.58,-10.171,-12.825,-0.4884,-0.2765,-0.0331,-1.751,2.173,-9.546,0.000334,0.000299,0.000116
5957,1711208889.941635,16.299954414367676,149.58,-10.171,-12.825,-0.4904,-0.2833,-0.0398,-1.741,2.168,-9.554,0.002116,-0.000856,0.000628
5958,1711208889.967332,16.32565140724182,149.58,-10.17,-12.824,-0.4895,-0.2834,-0.0353,-1.757,2.187,-9.524,0.001795,0.000415,0.000126
5959,1711208889.9917076,16.350027084350586,149.581,-10.172,-12.825,-0.4876,-0.2794,-0.0352,-1.765,2.171,-9.552,0.002239,-0.002215,-0.001034
5960,1711208890.0166268,16.374946355819702,149.581,-10.173,-12.826,-0.4895,-0.2824,-0.0331,-1.776,2.17,-9.527,0.000391,-0.000646,-0.001403
5961,1711208890.041608,16.399927616119385,149.579,-10.173,-12.825,-0.4895,-0.2824,-0.0364,-1.758,2.163,-9.541,0.002141,0.001157,0.000134
5962,1711208890.0685997,16.42691922187805,149.577,-10.173,-12.825,-0.4886,-0.2854,-0.0374,-1.743,2.19,-9.557,0.001777,0.001105,-0.000206
5963,1711208890.0918994,16.45021891593933,149.577,-10.173,-12.825,-0.4895,-0.2853,-0.0408,-1.756,2.164,-9.559,-0.001243,-0.0014,-2.7e-05
5964,1711208890.1165757,16.474895238876343,149.58,-10.172,-12.828,-0.4867,-0.2844,-0.0362,-1.786,2.184,-9.553,-0.003764,-0.001487,0.001341
5965,1711208890.1415267,16.49984622001648,149.58,-10.174,-12.825,-0.4876,-0.2804,-0.0352,-1.759,2.143,-9.517,0.003482,-0.002273,-0.001487
5966,1711208890.1664703,16.524789810180664,149.579,-10.173,-12.825,-0.4877,-0.2884,-0.0362,-1.765,2.172,-9.524,-0.001463,0.002454,0.000837
5967,1711208890.194581,16.552900552749634,149.578,-10.174,-12.828,-0.4895,-0.2844,-0.0408,-1.775,2.178,-9.555,0.000949,0.000109,0.000512
5968,1711208890.2169034,16.575222969055176,149.578,-10.174,-12.828,-0.4895,-0.2853,-0.0331,-1.78,2.19,-9.503,-0.002274,0.000952,-0.000575
5969,1711208890.241811,16.600130558013916,149.58,-10.173,-12.829,-0.4866,-0.2805,-0.0374,-1.773,2.186,-9.536,-0.002083,0.000585,0.001637
5970,1711208890.2664564,16.624775886535645,149.58,-10.175,-12.828,-0.4895,-0.2824,-0.0364,-1.752,2.171,-9.536,0.000357,0.00073,0.000574
5971,1711208890.291562,16.649881601333618,149.582,-10.176,-12.828,-0.4895,-0.2824,-0.0386,-1.784,2.172,-9.558,-0.001104,0.000635,0.000608
5972,1711208890.3174398,16.675759315490723,149.58,-10.177,-12.828,-0.4867,-0.2834,-0.0351,-1.796,2.178,-9.573,-0.000338,0.000995,-5.8e-05
5973,1711208890.3414323,16.69975185394287,149.579,-10.178,-12.827,-0.4894,-0.2794,-0.0408,-1.741,2.149,-9.546,0.000593,0.000236,-0.001118
5974,1711208890.3664458,16.724765300750732,149.578,-10.175,-12.828,-0.4895,-0.2883,-0.0364,-1.757,2.181,-9.548,0.000208,0.001508,-0.000757
5975,1711208890.391486,16.749805450439453,149.577,-10.177,-12.828,-0.4886,-0.2854,-0.0374,-1.747,2.161,-9.545,0.001028,-0.00044,0.000332
5976,1711208890.4164107,16.77473020553589,149.576,-10.177,-12.827,-0.4867,-0.2815,-0.0341,-1.753,2.187,-9.527,0.002859,-0.001165,-3.4e-05
5977,1711208890.4413724,16.799691915512085,149.576,-10.176,-12.828,-0.4875,-0.2785,-0.0374,-1.746,2.178,-9.539,0.001503,-0.000606,-0.002005
5978,1711208890.4663515,16.824671030044556,149.576,-10.175,-12.829,-0.4876,-0.2834,-0.0352,-1.756,2.194,-9.552,-4.4e-05,-0.000374,0.000269
5979,1711208890.4921575,16.85047698020935,149.573,-10.175,-12.828,-0.4867,-0.2834,-0.0395,-1.754,2.185,-9.561,-0.000219,-0.000212,6.2e-05
5980,1711208890.5163312,16.874650716781616,149.573,-10.175,-12.827,-0.4895,-0.2834,-0.0331,-1.763,2.176,-9.542,0.001653,-0.00088,-0.000197
5981,1711208890.5413775,16.899697065353394,149.576,-10.174,-12.827,-0.4904,-0.2814,-0.0376,-1.762,2.16,-9.56,0.000563,6.5e-05,0.000858
5982,1711208890.5662925,16.924612045288086,149.577,-10.174,-12.827,-0.4867,-0.2854,-0.0362,-1.742,2.193,-9.544,0.001534,-0.000185,-0.000151
5983,1711208890.591296,16.949615478515625,149.576,-10.174,-12.828,-0.4914,-0.2863,-0.0387,-1.755,2.19,-9.532,-0.000698,0.000198,-7e-06
5984,1711208890.616303,16.97462248802185,149.573,-10.173,-12.829,-0.4895,-0.2853,-0.0342,-1.771,2.191,-9.566,0.000113,0.0016,-0.000439
5985,1711208890.6420953,17.000414848327637,149.573,-10.174,-12.828,-0.4886,-0.2864,-0.0374,-1.765,2.167,-9.572,-0.002424,0.001863,0.000718
5986,1711208890.666233,17.024552583694458,149.572,-10.174,-12.827,-0.4867,-0.2874,-0.0395,-1.758,2.16,-9.525,-2.4e-05,0.000181,-0.000774
5987,1711208890.692308,17.05062747001648,149.572,-10.174,-12.827,-0.4885,-0.2824,-0.0386,-1.761,2.164,-9.553,0.00024,0.001591,-0.000701
5988,1711208890.7161927,17.074512243270874,149.568,-10.172,-12.828,-0.4867,-0.2844,-0.0329,-1.766,2.154,-9.561,-0.000413,0.002166,-0.000318
5989,1711208890.7420874,17.100406885147095,149.568,-10.172,-12.828,-0.4877,-0.2864,-0.0385,-1.756,2.188,-9.555,-0.001351,0.001355,0.000185
5990,1711208890.7665374,17.12485694885254,149.566,-10.172,-12.828,-0.4877,-0.2894,-0.034,-1.773,2.192,-9.578,-0.000517,0.000111,-0.000228
5991,1711208890.7919714,17.150290966033936,149.565,-10.173,-12.829,-0.4895,-0.2863,-0.0353,-1.764,2.208,-9.536,0.000894,-0.000579,-0.001739
5992,1711208890.8162832,17.1746027469635,149.564,-10.173,-12.828,-0.4885,-0.2784,-0.0364,-1.781,2.175,-9.527,0.002903,-0.000513,0.001121
5993,1711208890.84199,17.20030951499939,149.566,-10.174,-12.829,-0.4904,-0.2843,-0.043,-1.758,2.174,-9.554,0.000584,0.000455,0.000285
5994,1711208890.8670797,17.225399255752563,149.569,-10.174,-12.83,-0.4867,-0.2844,-0.034,-1.768,2.169,-9.541,-0.00131,0.000236,0.001497
5995,1711208890.8919485,17.25026798248291,149.567,-10.172,-12.83,-0.4886,-0.2893,-0.0418,-1.767,2.189,-9.562,-0.000634,0.001474,0.000181
5996,1711208890.9175203,17.275839805603027,149.567,-10.171,-12.83,-0.4886,-0.2854,-0.0385,-1.747,2.172,-9.545,0.002239,0.00015,-0.000261
5997,1711208890.9426987,17.301018238067627,149.568,-10.172,-12.831,-0.4867,-0.2824,-0.034,-1.763,2.166,-9.533,-0.000521,-0.000652,-0.000608
5998,1711208890.971025,17.329344511032104,149.566,-10.172,-12.831,-0.4849,-0.2874,-0.0339,-1.773,2.193,-9.507,-0.000976,0.000315,-0.000139
5999,1711208890.9919982,17.35031771659851,149.563,-10.172,-12.83,-0.4914,-0.2883,-0.0398,-1.739,2.175,-9.585,0.000955,0.000911,-0.000364
6000,1711208891.018093,17.376412630081177,149.562,-10.171,-12.83,-0.4914,-0.2883,-0.0354,-1.75,2.164,-9.57,0.001156,0.000384,-3.2e-05
6001,1711208891.0418444,17.400163888931274,149.56,-10.171,-12.83,-0.4904,-0.2863,-0.0386,-1.765,2.176,-9.574,0.002023,0.001389,-9.5e-05
6002,1711208891.0668283,17.425147771835327,149.561,-10.17,-12.829,-0.4876,-0.2854,-0.0385,-1.758,2.19,-9.593,0.000793,0.000204,-0.000343
6003,1711208891.091961,17.45028042793274,149.559,-10.17,-12.829,-0.4894,-0.2814,-0.0386,-1.762,2.2,-9.579,0.003467,-0.000372,-0.000638
6004,1711208891.117212,17.475531578063965,149.559,-10.171,-12.828,-0.4886,-0.2854,-0.0363,-1.752,2.186,-9.572,0.004143,-0.00031,0.000227
6005,1711208891.141821,17.50014042854309,149.558,-10.17,-12.828,-0.4886,-0.2844,-0.0363,-1.758,2.195,-9.563,0.002113,-0.000317,-0.000944
6006,1711208891.1668084,17.52512788772583,149.56,-10.171,-12.828,-0.4885,-0.2814,-0.0353,-1.763,2.183,-9.521,0.00178,-0.000107,-0.000468
6007,1711208891.1918497,17.550169229507446,149.559,-10.172,-12.828,-0.4904,-0.2833,-0.0365,-1.768,2.165,-9.536,0.000443,0.000697,0.000259
6008,1711208891.2169325,17.575252056121826,149.558,-10.171,-12.828,-0.4867,-0.2854,-0.0329,-1.758,2.185,-9.556,-0.00051,9e-05,-0.001296
6009,1711208891.242249,17.600568532943726,149.559,-10.171,-12.828,-0.4867,-0.2834,-0.0351,-1.762,2.185,-9.554,-1.4e-05,-0.000532,0.001713
6010,1711208891.2667778,17.625097274780273,149.558,-10.172,-12.83,-0.4885,-0.2824,-0.032,-1.776,2.174,-9.548,-0.003631,-0.00015,0.000965
6011,1711208891.2920873,17.65040683746338,149.563,-10.175,-12.83,-0.4904,-0.2814,-0.0387,-1.795,2.178,-9.54,0.000395,-0.001156,0.000302
6012,1711208891.3174546,17.675774097442627,149.561,-10.177,-12.83,-0.4894,-0.2794,-0.0365,-1.789,2.18,-9.56,0.001343,-0.000886,-0.000594
6013,1711208891.3417144,17.70003390312195,149.561,-10.176,-12.827,-0.4884,-0.2774,-0.0408,-1.78,2.185,-9.55,0.002679,0.002013,-0.000161
6014,1711208891.366688,17.7250075340271,149.56,-10.176,-12.825,-0.4904,-0.2863,-0.0364,-1.755,2.18,-9.558,0.001073,0.00096,-0.001803
6015,1711208891.3916671,17.74998664855957,149.559,-10.173,-12.826,-0.4877,-0.2874,-0.0362,-1.729,2.168,-9.56,-0.000561,0.000914,-0.000481
6016,1711208891.416601,17.77492046356201,149.56,-10.174,-12.824,-0.4894,-0.2784,-0.0376,-1.761,2.191,-9.534,-2.4e-05,-0.000509,-0.000152
6017,1711208891.4416857,17.800005197525024,149.558,-10.175,-12.823,-0.4895,-0.2843,-0.043,-1.764,2.189,-9.549,0.00294,-0.000826,-0.001617
6018,1711208891.4667065,17.825026035308838,149.559,-10.176,-12.823,-0.4895,-0.2824,-0.0364,-1.793,2.189,-9.552,0.002618,0.001162,0.000627
6019,1711208891.4916654,17.849984884262085,149.562,-10.175,-12.824,-0.4885,-0.2844,-0.044,-1.746,2.18,-9.569,0.000857,-0.000924,-0.00026
6020,1711208891.51714,17.87545943260193,149.56,-10.174,-12.825,-0.4885,-0.2834,-0.0353,-1.746,2.185,-9.546,0.002616,-0.000872,-0.001229
6021,1711208891.5416167,17.899936199188232,149.56,-10.174,-12.823,-0.4903,-0.2804,-0.0409,-1.765,2.174,-9.566,0.00253,-0.000187,-0.000377
6022,1711208891.5666153,17.92493486404419,149.559,-10.174,-12.822,-0.4876,-0.2814,-0.0407,-1.754,2.152,-9.568,0.002598,-0.000691,-0.000157
6023,1711208891.5917609,17.950080394744873,149.56,-10.175,-12.821,-0.4895,-0.2853,-0.0452,-1.782,2.178,-9.552,-0.000277,0.000868,-0.000575
6024,1711208891.6173134,17.975632905960083,149.558,-10.175,-12.821,-0.4876,-0.2844,-0.0363,-1.788,2.172,-9.581,0.000599,0.000273,-0.00115
6025,1711208891.6418471,18.000166654586792,149.561,-10.174,-12.821,-0.4904,-0.2814,-0.042,-1.751,2.173,-9.567,-4.9e-05,0.001499,0.000147
6026,1711208891.6680143,18.026333808898926,149.562,-10.172,-12.82,-0.4885,-0.2814,-0.0364,-1.762,2.188,-9.553,-0.002752,0.003027,0.00037
6027,1711208891.6920655,18.050384998321533,149.563,-10.172,-12.821,-0.4895,-0.2844,-0.0386,-1.762,2.206,-9.527,0.000871,-0.000295,-0.000294
6028,1711208891.71713,18.075449466705322,149.564,-10.173,-12.821,-0.4904,-0.2833,-0.0365,-1.765,2.188,-9.549,-0.001148,-0.000352,0.000337
6029,1711208891.7418606,18.10018014907837,149.566,-10.173,-12.82,-0.4904,-0.2853,-0.0375,-1.751,2.178,-9.591,0.000483,0.00197,-0.000469
6030,1711208891.7665255,18.124845027923584,149.562,-10.174,-12.82,-0.4886,-0.2864,-0.0418,-1.758,2.166,-9.565,0.003181,-0.001109,-0.001366
6031,1711208891.7915788,18.149898290634155,149.561,-10.173,-12.817,-0.4914,-0.2863,-0.0376,-1.759,2.167,-9.539,0.000255,0.000188,-0.000344
6032,1711208891.8172119,18.1755313873291,149.559,-10.173,-12.818,-0.4867,-0.2844,-0.0351,-1.772,2.172,-9.56,0.002178,0.000785,-0.001347
6033,1711208891.8414845,18.199804067611694,149.56,-10.176,-12.817,-0.4904,-0.2824,-0.0376,-1.778,2.219,-9.536,-0.004175,0.002094,-0.000444
6034,1711208891.8664975,18.224817037582397,149.562,-10.177,-12.818,-0.4886,-0.2844,-0.0407,-1.777,2.181,-9.586,0.007313,0.000115,0.000481
6035,1711208891.891535,18.249854564666748,149.562,-10.178,-12.821,-0.4923,-0.2873,-0.0398,-1.779,2.196,-9.535,0.003249,-0.003985,-0.000999
6036,1711208891.9182332,18.27655267715454,149.561,-10.175,-12.819,-0.4886,-0.2854,-0.0385,-1.732,2.183,-9.536,-0.004591,0.002172,-0.000272
6037,1711208891.9414372,18.2997567653656,149.561,-10.176,-12.82,-0.4903,-0.2804,-0.042,-1.771,2.177,-9.521,-0.000225,0.002168,-0.000143
6038,1711208891.966594,18.324913501739502,149.56,-10.177,-12.819,-0.4885,-0.2824,-0.0375,-1.778,2.215,-9.593,-0.000511,0.000493,-0.000534
6039,1711208891.9918675,18.350187063217163,149.561,-10.177,-12.82,-0.4905,-0.2873,-0.0342,-1.787,2.17,-9.552,-0.003375,0.002254,-0.000665
6040,1711208892.0164647,18.374784231185913,149.558,-10.176,-12.819,-0.4904,-0.2814,-0.0376,-1.766,2.176,-9.542,-0.000546,0.002664,7.7e-05
6041,1711208892.0413873,18.399706840515137,149.558,-10.177,-12.819,-0.4885,-0.2804,-0.0441,-1.745,2.169,-9.603,0.001863,0.000933,0.000117
6042,1711208892.0676491,18.425968647003174,149.561,-10.176,-12.819,-0.4913,-0.2794,-0.0366,-1.757,2.185,-9.563,0.001683,-0.001947,-0.000548
6043,1711208892.0913234,18.44964289665222,149.56,-10.175,-12.819,-0.4914,-0.2863,-0.0409,-1.726,2.179,-9.546,0.001674,-0.000619,-0.000255
6044,1711208892.1185234,18.476842880249023,149.556,-10.174,-12.82,-0.4877,-0.2854,-0.0363,-1.775,2.168,-9.524,-0.001573,0.000857,-4e-05
6045,1711208892.1414762,18.49979567527771,149.557,-10.176,-12.82,-0.4895,-0.2844,-0.0408,-1.773,2.171,-9.555,0.001154,0.000483,-0.000191
6046,1711208892.1705422,18.52886176109314,149.556,-10.176,-12.82,-0.4895,-0.2834,-0.0353,-1.767,2.177,-9.528,-0.001447,0.000361,-0.00104
6047,1711208892.1923137,18.550633192062378,149.557,-10.174,-12.819,-0.4932,-0.2823,-0.0388,-1.741,2.147,-9.57,-0.000357,0.001808,-0.000129
6048,1711208892.217592,18.57591152191162,149.558,-10.173,-12.817,-0.4905,-0.2883,-0.0386,-1.768,2.175,-9.53,-0.001853,0.001107,-0.000252
6049,1711208892.2421005,18.600419998168945,149.558,-10.174,-12.819,-0.4895,-0.2844,-0.0364,-1.771,2.202,-9.55,-0.00253,0.001595,-0.000396
6050,1711208892.2664466,18.6247661113739,149.556,-10.175,-12.817,-0.4885,-0.2794,-0.0375,-1.767,2.184,-9.572,0.000563,-0.000461,-0.000171
6051,1711208892.2922828,18.650602340698242,149.557,-10.175,-12.818,-0.4913,-0.2853,-0.0398,-1.773,2.177,-9.553,0.002872,0.000797,0.001035
6052,1711208892.316531,18.674850463867188,149.558,-10.175,-12.818,-0.4904,-0.2824,-0.0376,-1.766,2.195,-9.528,-0.000198,0.001643,0.000135
6053,1711208892.342048,18.70036745071411,149.557,-10.173,-12.817,-0.4923,-0.2843,-0.0421,-1.748,2.167,-9.595,0.00296,0.000249,8.1e-05
6054,1711208892.366513,18.72483253479004,149.558,-10.172,-12.816,-0.4876,-0.2854,-0.0374,-1.76,2.185,-9.552,0.00152,-0.001875,-0.001388
6055,1711208892.3921108,18.75043034553528,149.558,-10.173,-12.816,-0.4904,-0.2824,-0.0365,-1.776,2.186,-9.528,0.003486,-0.000481,-0.001611
6056,1711208892.4191165,18.777436017990112,149.56,-10.174,-12.818,-0.4885,-0.2794,-0.0408,-1.757,2.187,-9.51,0.000564,-0.00108,0.0004
6057,1711208892.4419925,18.800312042236328,149.559,-10.173,-12.817,-0.4904,-0.2833,-0.0343,-1.761,2.173,-9.542,0.00137,0.001499,-0.000478
6058,1711208892.4669576,18.825277090072632,149.556,-10.172,-12.816,-0.4894,-0.2784,-0.0365,-1.761,2.183,-9.528,-0.00185,0.000101,0.000957
6059,1711208892.492137,18.850456476211548,149.558,-10.173,-12.816,-0.4895,-0.2844,-0.0353,-1.739,2.198,-9.53,0.000264,0.000116,-0.000369
6060,1711208892.516903,18.8752224445343,149.555,-10.174,-12.814,-0.4894,-0.2764,-0.0343,-1.766,2.175,-9.569,0.001806,0.000505,-0.000347
6061,1711208892.5426211,18.900940656661987,149.558,-10.173,-12.815,-0.4923,-0.2873,-0.0376,-1.762,2.174,-9.551,-0.001171,0.000806,0.001371
6062,1711208892.566852,18.925171613693237,149.558,-10.174,-12.815,-0.4913,-0.2833,-0.0376,-1.769,2.177,-9.569,-0.000343,0.001318,0.000701
6063,1711208892.5918791,18.950198650360107,149.557,-10.174,-12.815,-0.4903,-0.2804,-0.0387,-1.738,2.202,-9.552,0.002733,-0.000409,-0.001277
6064,1711208892.6172485,18.975568056106567,149.558,-10.174,-12.816,-0.4903,-0.2804,-0.0398,-1.755,2.154,-9.554,0.001808,0.000422,0.000313
6065,1711208892.6431637,19.00148320198059,149.558,-10.174,-12.815,-0.4914,-0.2863,-0.0409,-1.763,2.173,-9.539,0.001322,-0.000299,-0.000475
6066,1711208892.6667914,19.025110960006714,149.558,-10.173,-12.815,-0.4904,-0.2853,-0.0353,-1.767,2.199,-9.559,-0.00092,0.001534,0.000466
6067,1711208892.691797,19.050116539001465,149.56,-10.173,-12.817,-0.4895,-0.2834,-0.0364,-1.767,2.2,-9.548,-0.002049,3.4e-05,0.000166
6068,1711208892.7167656,19.075085163116455,149.563,-10.173,-12.817,-0.4886,-0.2854,-0.0341,-1.77,2.194,-9.519,-0.001259,-0.001027,0.00028
6069,1711208892.741796,19.100115537643433,149.562,-10.173,-12.818,-0.4913,-0.2833,-0.0387,-1.753,2.187,-9.537,-0.000266,0.001668,0.00071
6070,1711208892.7667725,19.125092029571533,149.563,-10.175,-12.818,-0.4886,-0.2844,-0.0385,-1.764,2.184,-9.524,-0.001886,-0.000362,-0.00133
6071,1711208892.7917511,19.150070667266846,149.562,-10.175,-12.818,-0.4896,-0.2893,-0.0374,-1.738,2.16,-9.523,-0.000913,0.000691,-0.0001
6072,1711208892.8167262,19.17504572868347,149.562,-10.175,-12.817,-0.4895,-0.2844,-0.0375,-1.761,2.182,-9.595,0.001523,0.000356,-0.000371
6073,1711208892.841713,19.200032472610474,149.561,-10.173,-12.818,-0.4914,-0.2883,-0.0376,-1.731,2.181,-9.56,-0.00082,0.001645,-0.000552
6074,1711208892.8666785,19.224997997283936,149.561,-10.173,-12.819,-0.4885,-0.2824,-0.0407,-1.775,2.184,-9.551,-0.001652,-0.000178,-0.000431
6075,1711208892.892137,19.25045657157898,149.56,-10.173,-12.82,-0.4885,-0.2834,-0.0396,-1.764,2.197,-9.525,-0.000281,0.001645,-0.000844
6076,1711208892.9166362,19.27495574951172,149.559,-10.173,-12.821,-0.4895,-0.2834,-0.0375,-1.772,2.163,-9.531,-9.2e-05,0.000351,0.000891
6077,1711208892.9416559,19.299975395202637,149.557,-10.173,-12.819,-0.4904,-0.2843,-0.0387,-1.741,2.193,-9.522,-0.001072,0.000676,0.00026
6078,1711208892.966585,19.324904441833496,149.559,-10.172,-12.819,-0.4896,-0.2893,-0.0374,-1.754,2.172,-9.528,-0.002024,0.001603,0.000107
6079,1711208892.9916599,19.349979400634766,149.557,-10.172,-12.819,-0.4923,-0.2843,-0.0399,-1.752,2.167,-9.576,-0.000171,0.000351,0.000941
6080,1711208893.0166051,19.374924659729004,149.559,-10.173,-12.819,-0.4913,-0.2843,-0.0354,-1.751,2.187,-9.554,0.000317,-0.000382,-0.00012
6081,1711208893.0415883,19.39990782737732,149.56,-10.173,-12.82,-0.4895,-0.2853,-0.0375,-1.746,2.148,-9.545,-0.000924,-0.000275,-0.001211
6082,1711208893.0683713,19.426690816879272,149.559,-10.172,-12.819,-0.4886,-0.2883,-0.0396,-1.763,2.169,-9.536,-0.000387,-0.000609,-0.000136
6083,1711208893.091654,19.449973583221436,149.556,-10.172,-12.82,-0.4895,-0.2853,-0.0397,-1.764,2.183,-9.534,0.001105,0.000224,-0.00055
6084,1711208893.1166098,19.474929332733154,149.557,-10.171,-12.82,-0.4884,-0.2765,-0.0386,-1.759,2.178,-9.543,0.001377,0.0014,3e-05
6085,1711208893.141597,19.499916553497314,149.56,-10.172,-12.822,-0.4895,-0.2824,-0.0375,-1.781,2.176,-9.523,-0.002233,-0.000173,0.001176
6086,1711208893.1671288,19.525448322296143,149.558,-10.172,-12.821,-0.4904,-0.2843,-0.0387,-1.739,2.176,-9.554,-0.00055,0.002055,0.00037
6087,1711208893.1915834,19.54990291595459,149.558,-10.17,-12.821,-0.4895,-0.2824,-0.0386,-1.756,2.183,-9.554,-0.001569,0.00126,-0.001372
6088,1711208893.2168157,19.575135231018066,149.561,-10.169,-12.823,-0.4904,-0.2853,-0.0408,-1.787,2.186,-9.52,-0.002132,0.000764,0.000841
6089,1711208893.2415187,19.599838256835938,149.562,-10.169,-12.822,-0.4895,-0.2863,-0.0419,-1.761,2.21,-9.549,0.000114,0.000302,-0.000247
6090,1711208893.2664924,19.62481188774109,149.562,-10.17,-12.824,-0.4904,-0.2833,-0.0387,-1.763,2.177,-9.546,0.000172,0.00023,0.000575
6091,1711208893.2916403,19.649959802627563,149.563,-10.171,-12.823,-0.4914,-0.2863,-0.0409,-1.762,2.18,-9.567,0.000605,0.000105,-0.000638
6092,1711208893.3172936,19.675613164901733,149.564,-10.171,-12.823,-0.4904,-0.2843,-0.0419,-1.743,2.161,-9.551,-0.000232,0.000585,-0.0007
6093,1711208893.3418067,19.70012617111206,149.564,-10.171,-12.822,-0.4895,-0.2824,-0.0375,-1.756,2.182,-9.563,0.00023,-5.7e-05,-8e-05
6094,1711208893.3668911,19.725210666656494,149.565,-10.171,-12.822,-0.4913,-0.2833,-0.0387,-1.763,2.167,-9.539,-0.001161,0.000917,-0.00059
6095,1711208893.3915493,19.749868869781494,149.567,-10.171,-12.822,-0.4903,-0.2774,-0.0387,-1.746,2.175,-9.53,9e-05,0.000767,8.7e-05
6096,1711208893.4164984,19.774817943572998,149.566,-10.171,-12.822,-0.4877,-0.2854,-0.0352,-1.774,2.168,-9.55,9.3e-05,0.000201,0.000858
6097,1711208893.4415007,19.79982018470764,149.565,-10.171,-12.821,-0.4904,-0.2833,-0.0409,-1.774,2.173,-9.532,-0.001539,0.001275,0.000806
6098,1711208893.4665048,19.824824333190918,149.564,-10.173,-12.819,-0.4922,-0.2823,-0.0388,-1.76,2.172,-9.566,0.001193,0.001794,0.001091
6099,1711208893.4920948,19.850414276123047,149.566,-10.173,-12.818,-0.4923,-0.2873,-0.0365,-1.74,2.173,-9.564,0.001532,-0.001116,-0.000316
6100,1711208893.5165968,19.874916315078735,149.565,-10.171,-12.817,-0.4903,-0.2794,-0.0398,-1.741,2.197,-9.58,0.002357,9.6e-05,-0.000763
6101,1711208893.541499,19.899818420410156,149.563,-10.17,-12.818,-0.4914,-0.2863,-0.0431,-1.746,2.172,-9.516,-0.000704,0.00183,-0.000644
6102,1711208893.5666983,19.925017833709717,149.565,-10.172,-12.819,-0.4914,-0.2863,-0.0387,-1.76,2.172,-9.577,-0.000228,0.001245,0.000884
6103,1711208893.5915082,19.949827671051025,149.563,-10.172,-12.819,-0.4903,-0.2794,-0.0376,-1.78,2.192,-9.564,0.000879,0.000215,0.000368
6104,1711208893.6163735,19.974693059921265,149.564,-10.172,-12.818,-0.4903,-0.2744,-0.0377,-1.791,2.158,-9.523,0.001984,-0.000139,0.001563
6105,1711208893.6414182,19.99973773956299,149.562,-10.172,-12.819,-0.4913,-0.2813,-0.0387,-1.779,2.189,-9.538,0.001382,0.000524,-0.00051
6106,1711208893.6663115,20.024631023406982,149.566,-10.173,-12.82,-0.4903,-0.2804,-0.0398,-1.757,2.158,-9.565,0.001741,0.000846,-0.000361
6107,1711208893.691354,20.049673557281494,149.567,-10.172,-12.82,-0.4923,-0.2843,-0.0344,-1.77,2.169,-9.574,-0.001478,-0.000561,0.000118
6108,1711208893.7163043,20.074623823165894,149.569,-10.172,-12.819,-0.4885,-0.2834,-0.0374,-1.763,2.184,-9.605,0.002177,-0.000374,0.0002
6109,1711208893.742111,20.100430488586426,149.57,-10.172,-12.818,-0.4913,-0.2823,-0.0431,-1.755,2.195,-9.584,0.001628,0.001141,4.3e-05
6110,1711208893.7662654,20.124584913253784,149.572,-10.17,-12.818,-0.4923,-0.2853,-0.0431,-1.76,2.191,-9.557,0.000474,0.000204,-0.000383
6111,1711208893.7920904,20.150409936904907,149.572,-10.169,-12.817,-0.4894,-0.2784,-0.0387,-1.767,2.18,-9.583,0.002039,0.000246,-0.000572
6112,1711208893.8192472,20.17756676673889,149.574,-10.169,-12.817,-0.4904,-0.2843,-0.0376,-1.772,2.187,-9.562,0.000841,0.000573,0.000362
6113,1711208893.8425221,20.200841665267944,149.573,-10.168,-12.814,-0.4904,-0.2873,-0.0419,-1.782,2.175,-9.576,0.003004,0.000794,-0.000489
6114,1711208893.86641,20.224729537963867,149.571,-10.167,-12.815,-0.4895,-0.2853,-0.043,-1.745,2.169,-9.572,-0.001158,-0.000669,1.7e-05
6115,1711208893.892365,20.2506844997406,149.572,-10.166,-12.817,-0.4895,-0.2863,-0.0397,-1.778,2.19,-9.559,-0.00062,-0.000657,0.000357
6116,1711208893.918543,20.276862621307373,149.568,-10.165,-12.816,-0.4923,-0.2882,-0.0376,-1.756,2.165,-9.546,-0.001898,0.001059,-0.000298
6117,1711208893.9423714,20.30069088935852,149.567,-10.166,-12.816,-0.4912,-0.2784,-0.041,-1.773,2.207,-9.58,0.003394,0.000818,-0.000304
6118,1711208893.9670408,20.32536029815674,149.568,-10.167,-12.818,-0.4922,-0.2833,-0.0388,-1.76,2.178,-9.545,-0.001062,-0.001011,-0.000368
6119,1711208893.992288,20.3506076335907,149.568,-10.167,-12.818,-0.4904,-0.2824,-0.0365,-1.772,2.182,-9.6,-0.002039,0.002616,0.00024
6120,1711208894.016981,20.375300407409668,149.566,-10.168,-12.819,-0.4894,-0.2814,-0.0408,-1.729,2.174,-9.575,0.008961,-0.00483,-0.002258
6121,1711208894.0422366,20.400556087493896,149.566,-10.167,-12.819,-0.4913,-0.2853,-0.0409,-1.76,2.192,-9.563,-0.000899,-0.001265,-0.001304
6122,1711208894.069114,20.427433490753174,149.566,-10.169,-12.819,-0.4894,-0.2804,-0.0408,-1.769,2.183,-9.547,0.000337,-0.000841,-0.00056
6123,1711208894.0922165,20.450536012649536,149.566,-10.171,-12.818,-0.4894,-0.2804,-0.0364,-1.787,2.18,-9.571,0.003738,0.001783,0.00117
6124,1711208894.1172972,20.475616693496704,149.566,-10.169,-12.818,-0.4895,-0.2863,-0.0364,-1.76,2.206,-9.593,0.007992,-0.001514,-0.001873
6125,1711208894.141851,20.500170469284058,149.566,-10.166,-12.819,-0.4923,-0.2863,-0.0398,-1.758,2.167,-9.555,0.002795,-0.003238,-0.001266
6126,1711208894.1669378,20.525257349014282,149.567,-10.167,-12.817,-0.4885,-0.2844,-0.0418,-1.762,2.183,-9.531,0.003253,-0.001954,-0.00082
6127,1711208894.1919856,20.550305128097534,149.565,-10.168,-12.815,-0.4932,-0.2852,-0.0454,-1.778,2.183,-9.526,0.002125,0.000477,-0.000544
6128,1711208894.2174463,20.57576584815979,149.564,-10.169,-12.813,-0.4904,-0.2853,-0.0408,-1.751,2.165,-9.575,0.003032,-0.001298,-0.000564
6129,1711208894.2418199,20.600139379501343,149.565,-10.167,-12.812,-0.4896,-0.2913,-0.0374,-1.754,2.184,-9.55,0.003056,-0.001248,-0.000667
6130,1711208894.2668657,20.625185251235962,149.565,-10.166,-12.813,-0.4904,-0.2833,-0.0398,-1.761,2.166,-9.558,-0.000627,0.001667,0.000671
6131,1711208894.2920015,20.650321006774902,149.564,-10.166,-12.813,-0.4912,-0.2774,-0.0421,-1.742,2.199,-9.563,-0.002035,0.00127,0.000235
6132,1711208894.316706,20.675025463104248,149.567,-10.167,-12.814,-0.4912,-0.2774,-0.041,-1.776,2.174,-9.55,-0.00288,0.000664,0.001197
6133,1711208894.3416996,20.700019121170044,149.569,-10.168,-12.814,-0.4913,-0.2833,-0.0387,-1.785,2.179,-9.554,-0.00096,0.001061,-0.000429
6134,1711208894.3666608,20.724980354309082,149.572,-10.168,-12.813,-0.4886,-0.2844,-0.0396,-1.755,2.192,-9.552,-0.000434,0.001522,0.000525
6135,1711208894.3916292,20.749948740005493,149.572,-10.167,-12.811,-0.4923,-0.2863,-0.0387,-1.773,2.171,-9.582,0.000769,0.001761,5e-06
6136,1711208894.4166617,20.774981260299683,149.573,-10.167,-12.81,-0.4895,-0.2824,-0.0364,-1.764,2.177,-9.544,0.001037,-0.000109,0.000455
6137,1711208894.4416337,20.79995322227478,149.575,-10.166,-12.81,-0.4913,-0.2823,-0.0376,-1.778,2.19,-9.571,0.000581,4.3e-05,0.000159
6138,1711208894.4666471,20.82496666908264,149.577,-10.168,-12.811,-0.4904,-0.2843,-0.0387,-1.747,2.201,-9.546,-0.001167,-0.000155,-0.001741
6139,1711208894.4916496,20.849969148635864,149.579,-10.167,-12.813,-0.4913,-0.2803,-0.0399,-1.767,2.2,-9.539,0.001008,0.00146,-0.000405
6140,1711208894.516604,20.87492346763611,149.58,-10.168,-12.813,-0.4894,-0.2804,-0.0353,-1.768,2.18,-9.559,0.000594,0.001029,-1.9e-05
6141,1711208894.5415735,20.899893045425415,149.58,-10.168,-12.814,-0.4894,-0.2794,-0.0419,-1.772,2.185,-9.543,0.000426,0.00073,0.000787
6142,1711208894.5665839,20.924903392791748,149.578,-10.168,-12.814,-0.4913,-0.2813,-0.0387,-1.768,2.188,-9.544,-0.00019,-0.002022,-0.001133
6143,1711208894.591694,20.950013637542725,149.576,-10.169,-12.815,-0.4895,-0.2863,-0.0397,-1.779,2.18,-9.539,0.001881,9.8e-05,-0.000639
6144,1711208894.6173854,20.97570490837097,149.573,-10.17,-12.814,-0.4904,-0.2843,-0.0397,-1.771,2.155,-9.531,0.003958,-0.001687,-0.001603
6145,1711208894.6416292,20.999948740005493,149.574,-10.168,-12.814,-0.4913,-0.2823,-0.0409,-1.773,2.181,-9.55,-0.001867,0.00206,0.000335
6146,1711208894.6676698,21.025989294052124,149.575,-10.168,-12.814,-0.4923,-0.2853,-0.0399,-1.763,2.184,-9.531,0.000405,0.000536,-0.000555
6147,1711208894.691569,21.049888610839844,149.576,-10.168,-12.814,-0.4903,-0.2804,-0.0398,-1.777,2.16,-9.562,1e-05,-0.000155,-0.000601
6148,1711208894.7165022,21.074821710586548,149.576,-10.17,-12.814,-0.4913,-0.2823,-0.0431,-1.744,2.186,-9.569,0.001222,-0.001439,2.8e-05
6149,1711208894.7415872,21.09990668296814,149.573,-10.171,-12.814,-0.4903,-0.2764,-0.0431,-1.762,2.173,-9.543,0.00013,-0.000367,-0.000488
6150,1711208894.7664614,21.124780893325806,149.571,-10.17,-12.813,-0.4895,-0.2844,-0.0353,-1.765,2.16,-9.57,0.000615,4e-05,-0.000992
6151,1711208894.791547,21.149866580963135,149.57,-10.17,-12.812,-0.4896,-0.2903,-0.0407,-1.78,2.159,-9.534,0.001516,0.001089,-1.2e-05
6152,1711208894.8165126,21.174832105636597,149.568,-10.17,-12.812,-0.4904,-0.2853,-0.0375,-1.755,2.162,-9.546,-0.000533,0.00151,-0.001224
6153,1711208894.8417711,21.200090646743774,149.569,-10.171,-12.812,-0.4905,-0.2873,-0.0375,-1.76,2.185,-9.579,-0.002458,0.000913,0.000968
6154,1711208894.8687294,21.227048873901367,149.568,-10.17,-12.812,-0.4885,-0.2784,-0.0408,-1.751,2.189,-9.55,0.001241,0.00078,-0.001425
6155,1711208894.8914466,21.2497661113739,149.571,-10.17,-12.813,-0.4932,-0.2843,-0.0399,-1.751,2.165,-9.571,-0.001521,-0.000101,-0.00073
6156,1711208894.9169068,21.275226354599,149.569,-10.169,-12.813,-0.4913,-0.2833,-0.042,-1.742,2.191,-9.574,0.001567,0.000857,-0.000777
6157,1711208894.9414341,21.299753665924072,149.572,-10.169,-12.814,-0.4913,-0.2843,-0.0376,-1.742,2.191,-9.543,-0.000224,-0.000287,0.000123
6158,1711208894.970512,21.328831434249878,149.574,-10.168,-12.815,-0.4894,-0.2824,-0.043,-1.747,2.175,-9.555,-0.000264,0.000504,-0.000114
6159,1711208894.9920282,21.350347757339478,149.572,-10.169,-12.814,-0.4885,-0.2834,-0.0418,-1.75,2.168,-9.559,-0.00066,-0.000266,-0.001224
6160,1711208895.0166683,21.374987840652466,149.57,-10.171,-12.815,-0.4876,-0.2854,-0.0385,-1.772,2.175,-9.563,0.001331,-0.000396,0.000472
6161,1711208895.0414376,21.399757146835327,149.567,-10.17,-12.814,-0.4904,-0.2843,-0.0376,-1.757,2.183,-9.561,0.00136,0.000812,-9.4e-05
6162,1711208895.0663996,21.424719095230103,149.571,-10.17,-12.812,-0.4876,-0.2844,-0.0363,-1.771,2.166,-9.574,0.001391,-0.000289,-0.000208
6163,1711208895.0913084,21.44962787628174,149.571,-10.17,-12.812,-0.4904,-0.2833,-0.0398,-1.768,2.184,-9.562,0.001095,-0.00049,-0.000728
6164,1711208895.1165915,21.474910974502563,149.572,-10.169,-12.811,-0.4903,-0.2774,-0.0398,-1.769,2.187,-9.548,0.00255,0.000639,-0.00057
6165,1711208895.1417336,21.50005316734314,149.577,-10.169,-12.812,-0.4894,-0.2814,-0.0452,-1.738,2.202,-9.547,-0.000545,0.00088,-0.000292
6166,1711208895.1663437,21.52466320991516,149.577,-10.17,-12.812,-0.4913,-0.2853,-0.0376,-1.783,2.173,-9.557,-0.000443,0.000762,-0.000961
6167,1711208895.1921275,21.5504469871521,149.576,-10.172,-12.813,-0.4922,-0.2833,-0.0388,-1.763,2.21,-9.549,0.000473,0.000328,0.000417
6168,1711208895.2162688,21.574588298797607,149.575,-10.172,-12.812,-0.4913,-0.2843,-0.0365,-1.757,2.158,-9.558,0.000513,0.001132,-1.8e-05
6169,1711208895.2420926,21.600412130355835,149.575,-10.172,-12.814,-0.4913,-0.2833,-0.0409,-1.776,2.127,-9.576,-0.006824,0.002155,-2.3e-05
6170,1711208895.2662282,21.624547719955444,149.574,-10.172,-12.812,-0.4884,-0.2755,-0.0397,-1.759,2.172,-9.555,-0.004188,0.003783,0.000701
6171,1711208895.29202,21.650339603424072,149.575,-10.174,-12.813,-0.4893,-0.2735,-0.0409,-1.77,2.208,-9.529,-0.004461,0.00237,0.00112
6172,1711208895.3162284,21.674547910690308,149.577,-10.174,-12.816,-0.4895,-0.2834,-0.0386,-1.732,2.187,-9.571,-8e-05,0.000396,-0.000147
