seq,stamp,elapsed_time,yaw,pitch,roll,mag_x,mag_y,mag_z,accel_x,accel_y,accel_z,gyro_x,gyro_y,gyro_z
1,1711294276.4478712,0,-114.852,-21.907,149.67,-0.2299,-0.558,-1.4022,-3.647,-4.539,7.745,-0.00052,-0.000504,-0.001027
2,1711294276.4727733,0.0249021053314209,-114.855,-21.909,149.673,-0.2289,-0.5561,-1.4,-3.643,-4.552,7.803,0.00242,0.000369,-0.000111
3,1711294276.5030355,0.055164337158203125,-114.856,-21.907,149.672,-0.2299,-0.557,-1.4023,-3.629,-4.558,7.808,-0.002921,-0.000209,0.000339
4,1711294276.5225313,0.07466006278991699,-114.855,-21.905,149.671,-0.2309,-0.562,-1.4034,-3.593,-4.579,7.77,0.000731,-1.4e-05,-0.000505
5,1711294276.5475454,0.09967422485351562,-114.856,-21.906,149.671,-0.2327,-0.5619,-1.4024,-3.642,-4.55,7.79,0.00162,0.000238,0.001082
6,1711294276.5727677,0.12489652633666992,-114.857,-21.91,149.675,-0.2309,-0.5649,-1.4022,-3.661,-4.521,7.784,0.000457,0.000448,-0.000832
7,1711294276.5975714,0.14970016479492188,-114.856,-21.909,149.673,-0.2299,-0.562,-1.4,-3.599,-4.58,7.778,-0.005952,-0.001373,-0.002919
8,1711294276.6224952,0.17462396621704102,-114.852,-21.907,149.667,-0.2318,-0.56,-1.4001,-3.598,-4.555,7.764,-0.000329,0.000663,-0.000267
9,1711294276.6475666,0.19969534873962402,-114.853,-21.906,149.672,-0.2308,-0.56,-1.4023,-3.635,-4.546,7.786,0.004247,0.000921,0.001188
10,1711294276.6732144,0.2253432273864746,-114.853,-21.909,149.674,-0.2309,-0.564,-1.3989,-3.645,-4.542,7.784,-0.00035,0.000304,0.000181
11,1711294276.6983836,0.25051236152648926,-114.852,-21.912,149.673,-0.228,-0.5581,-1.4021,-3.644,-4.519,7.782,-0.001535,0.001686,-0.000287
12,1711294276.7226682,0.2747969627380371,-114.851,-21.912,149.672,-0.2299,-0.561,-1.4033,-3.617,-4.55,7.765,0.000999,-9.7e-05,-0.000396
13,1711294276.747535,0.299663782119751,-114.85,-21.911,149.671,-0.2308,-0.558,-1.4034,-3.602,-4.57,7.78,0.002016,0.000121,-0.000288
14,1711294276.7732673,0.3253960609436035,-114.849,-21.91,149.67,-0.228,-0.5581,-1.3999,-3.629,-4.552,7.773,0.000443,0.000921,0.000406
15,1711294276.7979248,0.3500535488128662,-114.848,-21.914,149.673,-0.2299,-0.559,-1.4033,-3.651,-4.529,7.781,0.000643,0.001062,0.000711
16,1711294276.8238547,0.37598347663879395,-114.848,-21.915,149.673,-0.2298,-0.5551,-1.4045,-3.646,-4.57,7.783,-0.001183,-0.001328,-0.000362
17,1711294276.8476906,0.39981937408447266,-114.847,-21.914,149.672,-0.228,-0.5581,-1.4021,-3.594,-4.595,7.78,0.002099,0.000748,-0.000792
18,1711294276.8731904,0.42531919479370117,-114.846,-21.912,149.672,-0.2299,-0.561,-1.3989,-3.632,-4.547,7.801,0.001677,0.000993,0.000843
19,1711294276.8988602,0.4509890079498291,-114.845,-21.913,149.674,-0.2309,-0.562,-1.4044,-3.633,-4.556,7.824,0.001768,0.001464,0.000503
20,1711294276.9231303,0.47525906562805176,-114.846,-21.914,149.675,-0.2289,-0.5541,-1.4,-3.628,-4.565,7.777,0.000771,-0.000981,-0.000995
21,1711294276.947423,0.49955177307128906,-114.845,-21.913,149.674,-0.229,-0.56,-1.4033,-3.62,-4.546,7.776,0.000577,0.002189,0.000191
22,1711294276.9731371,0.5252659320831299,-114.845,-21.913,149.674,-0.2308,-0.559,-1.4023,-3.63,-4.563,7.774,0.000279,-0.000774,-0.000153
23,1711294276.9985042,0.5506329536437988,-114.845,-21.914,149.678,-0.2299,-0.558,-1.4044,-3.631,-4.53,7.783,0.002878,0.000464,-0.000228
24,1711294277.0231657,0.5752944946289062,-114.845,-21.915,149.682,-0.2318,-0.561,-1.4001,-3.621,-4.534,7.791,-0.000197,-0.000323,-0.000212
25,1711294277.0480442,0.6001729965209961,-114.844,-21.915,149.678,-0.2308,-0.56,-1.399,-3.624,-4.55,7.764,-0.000616,0.001001,-0.000515
26,1711294277.073076,0.6252048015594482,-114.844,-21.917,149.675,-0.2308,-0.561,-1.4001,-3.616,-4.596,7.752,0.000576,-2.2e-05,0.000128
27,1711294277.0980368,0.6501655578613281,-114.843,-21.917,149.676,-0.2308,-0.559,-1.4012,-3.622,-4.549,7.803,0.00369,0.000451,-0.000352
28,1711294277.1235678,0.675696611404419,-114.845,-21.917,149.679,-0.228,-0.5581,-1.3999,-3.613,-4.553,7.789,-0.001059,-3.9e-05,0.000821
29,1711294277.1479867,0.700115442276001,-114.844,-21.917,149.676,-0.2317,-0.557,-1.4002,-3.6,-4.548,7.777,-0.002182,0.000497,0.000558
30,1711294277.1737838,0.7259125709533691,-114.844,-21.917,149.676,-0.2309,-0.562,-1.4012,-3.637,-4.527,7.762,0.001073,0.000438,-0.000534
31,1711294277.1981392,0.7502679824829102,-114.843,-21.916,149.677,-0.229,-0.56,-1.4011,-3.645,-4.565,7.792,-0.001356,-7.9e-05,0.000483
32,1711294277.22317,0.7752988338470459,-114.842,-21.916,149.676,-0.2299,-0.558,-1.4033,-3.623,-4.564,7.764,-0.002375,0.001733,-0.000346
33,1711294277.2483704,0.8004992008209229,-114.842,-21.915,149.679,-0.2299,-0.563,-1.4033,-3.632,-4.563,7.79,0.001828,0.002163,0.001792
34,1711294277.2729573,0.8250861167907715,-114.841,-21.912,149.674,-0.2308,-0.561,-1.4012,-3.598,-4.564,7.755,-0.000247,0.000757,-0.000226
35,1711294277.298656,0.8507847785949707,-114.843,-21.914,149.677,-0.2299,-0.559,-1.4,-3.637,-4.567,7.809,0.006053,-0.002024,-0.001015
36,1711294277.3238838,0.8760125637054443,-114.845,-21.915,149.683,-0.2307,-0.5531,-1.4024,-3.628,-4.556,7.806,0.0052,0.000332,0.002115
37,1711294277.3484035,0.9005322456359863,-114.846,-21.914,149.684,-0.2309,-0.564,-1.4,-3.629,-4.571,7.837,-0.002067,0.001488,-0.002167
38,1711294277.3735023,0.925631046295166,-114.845,-21.913,149.676,-0.2308,-0.561,-1.4045,-3.634,-4.534,7.759,0.000512,-0.001104,-8e-05
39,1711294277.398648,0.9507768154144287,-114.844,-21.913,149.676,-0.229,-0.563,-1.3999,-3.62,-4.56,7.777,0.004126,0.000717,-0.000489
40,1711294277.423256,0.9753847122192383,-114.845,-21.915,149.68,-0.2299,-0.561,-1.4011,-3.635,-4.519,7.796,0.001385,-0.000724,0.000548
41,1711294277.4480433,1.0001721382141113,-114.846,-21.915,149.683,-0.2317,-0.557,-1.4035,-3.651,-4.527,7.808,-0.001037,0.00059,-0.000648
42,1711294277.4731169,1.0252456665039062,-114.847,-21.914,149.68,-0.2281,-0.563,-1.4021,-3.632,-4.546,7.774,-0.003335,0.001468,-0.000953
43,1711294277.4981093,1.0502381324768066,-114.844,-21.913,149.676,-0.2299,-0.559,-1.4033,-3.626,-4.563,7.784,-0.000493,0.000876,-0.001957
44,1711294277.523015,1.075143814086914,-114.844,-21.914,149.679,-0.2309,-0.564,-1.3989,-3.643,-4.545,7.747,0.002236,0.001504,-0.000252
45,1711294277.5481272,1.1002559661865234,-114.844,-21.917,149.681,-0.228,-0.5541,-1.4011,-3.637,-4.547,7.792,-0.000229,0.000767,-0.000504
46,1711294277.574027,1.1261558532714844,-114.845,-21.916,149.677,-0.2299,-0.557,-1.4012,-3.613,-4.557,7.737,-0.002922,0.001773,-0.000762
47,1711294277.5983844,1.1505131721496582,-114.844,-21.916,149.677,-0.2307,-0.5541,-1.4012,-3.618,-4.578,7.772,0.0017,0.000748,-0.000148
48,1711294277.6234636,1.1755924224853516,-114.845,-21.916,149.68,-0.2345,-0.5599,-1.4003,-3.642,-4.545,7.794,0.000112,-0.000706,0.001211
49,1711294277.6483645,1.200493335723877,-114.846,-21.916,149.678,-0.229,-0.56,-1.4055,-3.633,-4.568,7.78,-0.001778,0.001141,-0.000903
50,1711294277.673056,1.225184679031372,-114.848,-21.917,149.678,-0.2298,-0.5551,-1.4067,-3.655,-4.547,7.767,-0.00012,-0.002195,-0.000683
51,1711294277.6977367,1.2498655319213867,-114.847,-21.916,149.68,-0.2299,-0.56,-1.4055,-3.605,-4.551,7.801,0.00038,-0.000793,-0.000739
52,1711294277.7226884,1.2748172283172607,-114.849,-21.914,149.678,-0.2289,-0.5581,-1.4055,-3.641,-4.566,7.764,-0.001854,0.000352,-0.00257
53,1711294277.7476952,1.2998239994049072,-114.848,-21.915,149.676,-0.229,-0.563,-1.4032,-3.618,-4.551,7.751,0.003492,2.3e-05,0.000953
54,1711294277.7726505,1.3247792720794678,-114.846,-21.914,149.68,-0.2289,-0.5551,-1.4066,-3.613,-4.527,7.787,0.00119,0.001756,0.000956
55,1711294277.7976203,1.3497490882873535,-114.848,-21.914,149.684,-0.2309,-0.5649,-1.4011,-3.649,-4.527,7.819,5.4e-05,0.000218,5e-06
56,1711294277.823339,1.3754677772521973,-114.847,-21.915,149.68,-0.2298,-0.5541,-1.4034,-3.604,-4.56,7.765,-0.002703,0.000272,0.001068
57,1711294277.8476207,1.399749517440796,-114.845,-21.915,149.677,-0.2299,-0.562,-1.4066,-3.622,-4.569,7.762,0.003207,0.000947,-0.000688
58,1711294277.8739498,1.4260785579681396,-114.846,-21.913,149.679,-0.228,-0.5591,-1.4065,-3.628,-4.578,7.774,0.002979,-0.000377,0.000474
59,1711294277.8983858,1.450514554977417,-114.846,-21.911,149.684,-0.2317,-0.559,-1.4034,-3.63,-4.54,7.831,0.000788,-0.001146,-0.001107
60,1711294277.9241204,1.4762492179870605,-114.845,-21.911,149.679,-0.229,-0.561,-1.4011,-3.626,-4.558,7.763,-0.0064,0.000143,-0.001193
61,1711294277.9496906,1.501819372177124,-114.843,-21.912,149.676,-0.2279,-0.5531,-1.4011,-3.643,-4.578,7.78,-6.6e-05,0.001788,-0.000691
62,1711294277.982259,1.5343878269195557,-114.844,-21.912,149.676,-0.2281,-0.5601,-1.401,-3.617,-4.556,7.731,0.000553,0.000871,7.8e-05
63,1711294277.998101,1.550229787826538,-114.846,-21.911,149.678,-0.2289,-0.5521,-1.4022,-3.62,-4.576,7.803,0.000102,0.001186,0.000424
64,1711294278.022541,1.5746698379516602,-114.847,-21.91,149.678,-0.228,-0.5581,-1.4032,-3.606,-4.545,7.779,-0.001,1.8e-05,-0.001773
65,1711294278.0479069,1.6000356674194336,-114.847,-21.911,149.68,-0.2308,-0.559,-1.4023,-3.623,-4.553,7.8,0.001378,0.002061,-0.000569
66,1711294278.0732791,1.6254079341888428,-114.847,-21.911,149.678,-0.2318,-0.5629,-1.4012,-3.623,-4.549,7.788,-0.000465,0.000463,-0.000255
67,1711294278.097948,1.6500768661499023,-114.846,-21.912,149.678,-0.2299,-0.557,-1.4023,-3.637,-4.555,7.72,0.003053,-0.000122,-0.000328
68,1711294278.1231318,1.6752605438232422,-114.845,-21.911,149.678,-0.2318,-0.5629,-1.4023,-3.62,-4.572,7.774,0.003406,0.00044,-0.001038
69,1711294278.1479712,1.7000999450683594,-114.844,-21.911,149.68,-0.2289,-0.5581,-1.4,-3.652,-4.531,7.8,2.6e-05,0.002582,-0.000195
70,1711294278.172425,1.7245538234710693,-114.844,-21.911,149.679,-0.229,-0.5581,-1.3989,-3.624,-4.546,7.759,-0.002629,0.000707,-0.000305
71,1711294278.1978247,1.7499535083770752,-114.842,-21.913,149.678,-0.2299,-0.561,-1.4055,-3.609,-4.569,7.782,-0.000767,0.001181,-0.000898
72,1711294278.2232766,1.7754054069519043,-114.842,-21.915,149.679,-0.229,-0.56,-1.4033,-3.658,-4.545,7.794,0.002037,-0.000504,0.000647
73,1711294278.2486014,1.8007302284240723,-114.84,-21.912,149.68,-0.2308,-0.558,-1.4012,-3.592,-4.551,7.805,-0.001326,0.001858,0.000203
74,1711294278.272873,1.8250017166137695,-114.843,-21.912,149.679,-0.229,-0.56,-1.4022,-3.591,-4.559,7.802,-0.000915,0.000785,-0.000463
75,1711294278.2980196,1.8501484394073486,-114.844,-21.912,149.68,-0.2308,-0.561,-1.3979,-3.638,-4.532,7.784,0.000766,0.000106,0.000412
76,1711294278.323475,1.8756036758422852,-114.844,-21.913,149.678,-0.2289,-0.5551,-1.4033,-3.634,-4.543,7.762,0.000926,-0.000523,-0.001239
77,1711294278.3482237,1.9003524780273438,-114.844,-21.914,149.677,-0.2299,-0.56,-1.4011,-3.618,-4.566,7.787,0.000405,-0.000127,-0.000733
78,1711294278.3756194,1.927748203277588,-114.843,-21.914,149.679,-0.229,-0.562,-1.4032,-3.618,-4.559,7.79,0.000892,0.001424,-4.9e-05
79,1711294278.3976612,1.9497900009155273,-114.843,-21.915,149.678,-0.2281,-0.563,-1.4065,-3.638,-4.562,7.766,-0.000741,0.00196,2.5e-05
80,1711294278.4232237,1.9753525257110596,-114.842,-21.915,149.678,-0.229,-0.561,-1.4021,-3.617,-4.545,7.791,-0.001645,-0.00014,-0.000342
81,1711294278.4485986,2.000727415084839,-114.843,-21.916,149.678,-0.2299,-0.558,-1.4011,-3.641,-4.568,7.802,7e-06,-0.000513,-0.00259
82,1711294278.473175,2.025303840637207,-114.843,-21.916,149.678,-0.2289,-0.5581,-1.4033,-3.624,-4.546,7.785,0.001354,-0.000143,-0.000814
83,1711294278.4981277,2.0502564907073975,-114.844,-21.914,149.68,-0.2299,-0.561,-1.4,-3.628,-4.525,7.789,-2.9e-05,0.000583,6e-06
84,1711294278.5238223,2.075951099395752,-114.844,-21.914,149.68,-0.2308,-0.559,-1.399,-3.634,-4.559,7.764,-2.9e-05,0.000102,0.000743
85,1711294278.5494921,2.10162091255188,-114.845,-21.917,149.678,-0.2289,-0.5581,-1.4055,-3.636,-4.533,7.745,-0.000709,0.000834,-0.000988
86,1711294278.5808258,2.1329545974731445,-114.843,-21.916,149.677,-0.229,-0.56,-1.4055,-3.612,-4.579,7.762,0.001344,-4.2e-05,-0.000183
87,1711294278.5980692,2.150197982788086,-114.843,-21.915,149.679,-0.23,-0.564,-1.4033,-3.63,-4.561,7.81,0.00209,0.001595,-0.000531
88,1711294278.62497,2.1770987510681152,-114.845,-21.915,149.68,-0.2298,-0.5551,-1.4067,-3.631,-4.575,7.802,-0.001116,-0.000948,0.001126
89,1711294278.6487503,2.2008790969848633,-114.845,-21.915,149.673,-0.2317,-0.558,-1.4024,-3.606,-4.564,7.758,-0.001754,-0.000174,-0.000861
90,1711294278.673868,2.225996732711792,-114.845,-21.917,149.678,-0.2317,-0.558,-1.4013,-3.643,-4.53,7.776,0.002772,-0.000144,0.000265
91,1711294278.697973,2.2501018047332764,-114.844,-21.918,149.684,-0.2299,-0.562,-1.4044,-3.642,-4.54,7.805,0.003199,0.001274,0.001313
92,1711294278.7307286,2.2828574180603027,-114.841,-21.916,149.677,-0.2308,-0.561,-1.4012,-3.625,-4.561,7.788,-0.00572,0.002219,-0.001849
93,1711294278.748536,2.3006649017333984,-114.839,-21.915,149.675,-0.2317,-0.56,-1.4045,-3.593,-4.525,7.778,0.016559,0.002076,0.004724
94,1711294278.7731829,2.3253116607666016,-114.841,-21.917,149.669,-0.2299,-0.559,-1.4044,-3.671,-4.623,7.752,-0.003588,0.000402,0.002045
95,1711294278.7982008,2.350329637527466,-114.839,-21.919,149.675,-0.229,-0.56,-1.4033,-3.679,-4.507,7.787,0.006394,-0.003315,-0.001502
96,1711294278.82362,2.375748872756958,-114.841,-21.918,149.691,-0.2308,-0.558,-1.4067,-3.579,-4.526,7.857,0.002981,0.001288,0.001038
97,1711294278.847934,2.4000627994537354,-114.842,-21.917,149.678,-0.2308,-0.558,-1.4034,-3.597,-4.606,7.798,-0.01476,0.006282,0.000733
98,1711294278.8730283,2.425157070159912,-114.839,-21.916,149.658,-0.228,-0.5581,-1.4032,-3.648,-4.567,7.629,-0.002915,-0.001884,-0.003114
99,1711294278.8980126,2.450141429901123,-114.842,-21.917,149.675,-0.2308,-0.561,-1.4056,-3.657,-4.54,7.765,0.019479,-0.004435,0.001208
100,1711294278.9234548,2.475583553314209,-114.849,-21.919,149.691,-0.2327,-0.5619,-1.4079,-3.641,-4.552,7.847,-4.2e-05,-0.001533,-0.001574
101,1711294278.9481394,2.5002682209014893,-114.847,-21.917,149.682,-0.2299,-0.56,-1.4011,-3.593,-4.524,7.783,-0.008188,0.00129,-0.000382
102,1711294278.9735038,2.525632619857788,-114.846,-21.917,149.676,-0.2308,-0.559,-1.4078,-3.615,-4.517,7.722,0.003296,0.002739,0.001357
103,1711294278.999637,2.5517656803131104,-114.851,-21.919,149.68,-0.2299,-0.561,-1.4066,-3.682,-4.551,7.786,0.003876,-0.00037,0.000599
104,1711294279.0231693,2.5752980709075928,-114.853,-21.919,149.679,-0.2289,-0.5571,-1.4022,-3.629,-4.544,7.775,-0.001314,-0.001667,-0.002914
105,1711294279.0481195,2.600248336791992,-114.85,-21.917,149.681,-0.2299,-0.559,-1.4033,-3.576,-4.528,7.768,0.002318,-0.000487,-0.000456
106,1711294279.0729396,2.625068426132202,-114.85,-21.916,149.685,-0.2308,-0.56,-1.4045,-3.602,-4.553,7.847,0.001115,0.001846,0.001147
107,1711294279.09776,2.649888753890991,-114.85,-21.919,149.681,-0.2298,-0.5561,-1.4045,-3.661,-4.543,7.785,-0.004977,0.000216,0.000224
108,1711294279.1263072,2.678436040878296,-114.847,-21.921,149.678,-0.229,-0.561,-1.4021,-3.633,-4.537,7.741,0.000759,-0.000529,-0.001107
109,1711294279.148043,2.700171709060669,-114.848,-21.919,149.684,-0.2307,-0.555,-1.4056,-3.619,-4.564,7.807,0.002337,-0.001995,-0.000449
110,1711294279.1734493,2.7255780696868896,-114.849,-21.917,149.682,-0.2299,-0.561,-1.4044,-3.581,-4.57,7.743,-0.002855,0.001366,-0.001297
111,1711294279.1995294,2.7516582012176514,-114.848,-21.918,149.679,-0.2281,-0.563,-1.4054,-3.616,-4.543,7.755,-0.001955,0.000447,-0.000163
112,1711294279.2231808,2.7753095626831055,-114.848,-21.92,149.68,-0.229,-0.561,-1.4054,-3.626,-4.542,7.772,-0.000373,0.00137,0.000176
113,1711294279.248479,2.800607681274414,-114.85,-21.92,149.682,-0.2308,-0.557,-1.4056,-3.642,-4.541,7.807,-0.002632,-0.000741,-0.001147
114,1711294279.2772653,2.8293941020965576,-114.849,-21.919,149.679,-0.2299,-0.559,-1.4077,-3.615,-4.559,7.799,-0.000266,-0.001379,0.000492
115,1711294279.298158,2.8502867221832275,-114.848,-21.916,149.682,-0.2326,-0.557,-1.4057,-3.623,-4.574,7.783,0.000657,0.00129,1.2e-05
116,1711294279.3234322,2.875560998916626,-114.852,-21.917,149.683,-0.2309,-0.563,-1.4055,-3.634,-4.582,7.799,-0.001365,0.0003,-0.000571
117,1711294279.3490338,2.901162624359131,-114.851,-21.919,149.677,-0.2281,-0.561,-1.4065,-3.659,-4.574,7.73,-0.002484,0.000298,-0.00071
118,1711294279.3731115,2.9252402782440186,-114.849,-21.919,149.678,-0.2327,-0.5639,-1.4056,-3.649,-4.57,7.772,0.003993,-0.001097,-0.000963
119,1711294279.3989642,2.9510929584503174,-114.849,-21.917,149.681,-0.228,-0.561,-1.412,-3.598,-4.542,7.821,0.0025,-0.000365,0.000292
120,1711294279.4299345,2.9820632934570312,-114.848,-21.917,149.683,-0.2299,-0.56,-1.4143,-3.622,-4.527,7.792,-0.000227,0.001533,0.000398
121,1711294279.4485486,3.0006773471832275,-114.849,-21.917,149.679,-0.2318,-0.561,-1.4078,-3.634,-4.564,7.779,-0.003155,-3.6e-05,-0.000971
122,1711294279.473206,3.0253348350524902,-114.848,-21.918,149.677,-0.228,-0.5571,-1.4054,-3.623,-4.563,7.761,0.002012,-0.000624,0.000407
123,1711294279.4979546,3.0500833988189697,-114.847,-21.916,149.68,-0.2299,-0.558,-1.411,-3.64,-4.532,7.799,0.003088,-0.000699,5.8e-05
124,1711294279.525154,3.0772829055786133,-114.85,-21.916,149.685,-0.2299,-0.558,-1.4099,-3.64,-4.535,7.809,-0.000206,0.000344,-1.9e-05
125,1711294279.5481844,3.100313186645508,-114.852,-21.918,149.683,-0.2298,-0.558,-1.4121,-3.622,-4.549,7.773,-0.002329,-0.000557,0.000849
126,1711294279.573109,3.1252377033233643,-114.851,-21.92,149.682,-0.2289,-0.559,-1.4088,-3.624,-4.559,7.787,-0.000785,0.00169,-0.000923
127,1711294279.599168,3.151296854019165,-114.85,-21.92,149.68,-0.2326,-0.556,-1.4112,-3.62,-4.566,7.785,0.001069,0.002099,0.000349
128,1711294279.6230946,3.1752233505249023,-114.852,-21.919,149.682,-0.2297,-0.5501,-1.41,-3.623,-4.535,7.8,0.002815,0.000104,0.000707
129,1711294279.648391,3.2005198001861572,-114.852,-21.919,149.685,-0.228,-0.5571,-1.4076,-3.615,-4.536,7.789,0.002624,0.000405,-0.000278
130,1711294279.6728928,3.2250216007232666,-114.854,-21.92,149.685,-0.229,-0.562,-1.4098,-3.636,-4.532,7.777,0.000531,0.001878,0.000409
131,1711294279.6975381,3.249666929244995,-114.852,-21.921,149.684,-0.2308,-0.561,-1.411,-3.616,-4.589,7.797,-0.001988,0.001119,-0.000182
132,1711294279.723383,3.2755117416381836,-114.85,-21.92,149.679,-0.2279,-0.5521,-1.4099,-3.613,-4.571,7.758,0.001268,0.001235,0.000501
133,1711294279.7499764,3.302105188369751,-114.851,-21.919,149.681,-0.228,-0.5581,-1.4065,-3.629,-4.578,7.772,0.0048,2.5e-05,0.000611
134,1711294279.7735264,3.325655221939087,-114.85,-21.918,149.684,-0.229,-0.561,-1.4054,-3.614,-4.569,7.832,-0.003623,-0.000374,0.000461
135,1711294279.7976308,3.349759578704834,-114.852,-21.919,149.684,-0.2271,-0.5591,-1.4119,-3.641,-4.584,7.847,-0.006441,0.0014,0.000335
136,1711294279.8233533,3.3754820823669434,-114.852,-21.92,149.68,-0.2317,-0.559,-1.4133,-3.608,-4.597,7.776,-0.003804,0.002206,-0.000986
137,1711294279.8480182,3.400146961212158,-114.851,-21.919,149.681,-0.2289,-0.559,-1.4131,-3.6,-4.577,7.781,0.003948,-0.000413,-0.000569
138,1711294279.8730302,3.425158977508545,-114.854,-21.918,149.683,-0.2308,-0.561,-1.4078,-3.593,-4.577,7.83,0.001864,0.000772,0.000449
139,1711294279.8979907,3.4501194953918457,-114.854,-21.919,149.68,-0.228,-0.5601,-1.4043,-3.62,-4.597,7.786,-0.000986,0.001139,-0.00047
140,1711294279.9246175,3.4767463207244873,-114.855,-21.921,149.68,-0.229,-0.559,-1.4066,-3.637,-4.536,7.79,0.004115,-0.000803,-0.001096
141,1711294279.9474473,3.4995760917663574,-114.856,-21.92,149.688,-0.2308,-0.557,-1.4111,-3.617,-4.536,7.824,0.001573,0.000562,-0.000699
142,1711294279.973919,3.526047706604004,-114.859,-21.918,149.685,-0.2298,-0.557,-1.4077,-3.615,-4.531,7.797,-0.005074,0.001431,-6.7e-05
143,1711294280.0011914,3.5533201694488525,-114.854,-21.919,149.677,-0.228,-0.5581,-1.4076,-3.612,-4.58,7.734,0.000452,0.001749,-0.00044
144,1711294280.02591,3.5780386924743652,-114.854,-21.921,149.681,-0.228,-0.5591,-1.4065,-3.667,-4.537,7.756,0.006313,-0.001269,-0.000143
145,1711294280.0477912,3.5999200344085693,-114.854,-21.921,149.689,-0.2308,-0.558,-1.4067,-3.628,-4.536,7.805,0.001409,-0.000186,0.00101
146,1711294280.0732367,3.6253654956817627,-114.855,-21.919,149.685,-0.229,-0.563,-1.4054,-3.605,-4.547,7.771,-0.003378,0.002732,-0.000427
147,1711294280.0981789,3.6503076553344727,-114.851,-21.919,149.682,-0.2271,-0.5571,-1.4054,-3.644,-4.554,7.764,0.000468,0.000153,-0.002398
148,1711294280.123953,3.676081895828247,-114.852,-21.919,149.685,-0.2289,-0.5571,-1.4055,-3.627,-4.532,7.797,0.001204,-0.000446,-0.000969
149,1711294280.14981,3.7019388675689697,-114.853,-21.919,149.685,-0.228,-0.5591,-1.4065,-3.613,-4.554,7.803,-0.001973,0.000746,-0.000584
150,1711294280.1731632,3.7252919673919678,-114.854,-21.919,149.684,-0.2279,-0.5541,-1.4077,-3.618,-4.568,7.795,0.001643,0.0029,-0.000375
151,1711294280.197458,3.749586820602417,-114.854,-21.918,149.69,-0.2271,-0.5601,-1.4064,-3.637,-4.581,7.829,0.00397,-0.001591,0.001899
152,1711294280.2261019,3.778230667114258,-114.855,-21.918,149.688,-0.2289,-0.5551,-1.4077,-3.62,-4.573,7.773,-0.001821,-0.000216,0.000534
153,1711294280.2495701,3.801698923110962,-114.853,-21.917,149.685,-0.2289,-0.5581,-1.4033,-3.613,-4.548,7.758,0.002543,-5.7e-05,0.000552
154,1711294280.274156,3.826284885406494,-114.854,-21.916,149.685,-0.2299,-0.559,-1.411,-3.631,-4.556,7.77,0.001343,-0.001045,-0.000439
155,1711294280.2983387,3.8504674434661865,-114.852,-21.916,149.686,-0.2299,-0.564,-1.412,-3.596,-4.536,7.795,0.00314,0.002773,0.000765
156,1711294280.3238807,3.876009464263916,-114.851,-21.915,149.685,-0.2299,-0.561,-1.4088,-3.599,-4.569,7.782,-0.000818,0.000156,0.000708
157,1711294280.3493202,3.901448965072632,-114.854,-21.915,149.683,-0.228,-0.561,-1.412,-3.642,-4.527,7.784,0.003402,-0.000254,0.001664
158,1711294280.379872,3.9320008754730225,-114.855,-21.914,149.685,-0.2299,-0.559,-1.4088,-3.639,-4.543,7.773,0.000443,-0.002002,-0.000311
159,1711294280.3982248,3.9503536224365234,-114.857,-21.914,149.686,-0.2271,-0.5561,-1.4054,-3.624,-4.534,7.813,0.001895,0.000391,0.000829
160,1711294280.4240272,3.976155996322632,-114.857,-21.912,149.685,-0.2288,-0.5511,-1.4143,-3.608,-4.575,7.799,-0.002386,-0.000431,0.000491
161,1711294280.447904,4.000032901763916,-114.854,-21.914,149.683,-0.2299,-0.56,-1.4132,-3.625,-4.557,7.757,0.002911,0.00109,-0.000674
162,1711294280.474539,4.026667833328247,-114.854,-21.912,149.685,-0.2298,-0.5561,-1.4056,-3.628,-4.541,7.772,0.000888,-0.000398,7.8e-05
163,1711294280.4985893,4.050718069076538,-114.857,-21.911,149.686,-0.2289,-0.5561,-1.4066,-3.613,-4.552,7.794,0.000427,9.8e-05,-0.000638
164,1711294280.5233674,4.075496196746826,-114.857,-21.912,149.687,-0.2298,-0.557,-1.4099,-3.605,-4.534,7.796,0.000493,0.000555,-0.000778
165,1711294280.548365,4.100493907928467,-114.859,-21.911,149.688,-0.2271,-0.5581,-1.4075,-3.643,-4.566,7.799,-0.000975,0.00067,4e-06
166,1711294280.5739846,4.126113414764404,-114.857,-21.91,149.686,-0.2308,-0.561,-1.4067,-3.615,-4.58,7.8,0.00123,0.001866,-0.000811
167,1711294280.5984604,4.150589227676392,-114.858,-21.91,149.685,-0.2308,-0.562,-1.4132,-3.624,-4.541,7.764,0.002442,0.000152,0.000912
168,1711294280.623117,4.175245761871338,-114.861,-21.911,149.686,-0.2298,-0.557,-1.4055,-3.624,-4.542,7.775,0.001493,-0.000493,-0.0005
169,1711294280.6478813,4.200010061264038,-114.864,-21.911,149.685,-0.2289,-0.5571,-1.4154,-3.614,-4.526,7.782,-9.7e-05,0.001078,-0.000145
170,1711294280.6742623,4.226391077041626,-114.864,-21.911,149.684,-0.2308,-0.559,-1.4067,-3.633,-4.551,7.771,-0.000274,-0.000557,-0.000207
171,1711294280.6981378,4.2502665519714355,-114.865,-21.911,149.683,-0.228,-0.5591,-1.4065,-3.636,-4.541,7.751,0.000488,-0.001391,2.6e-05
172,1711294280.7235453,4.275674104690552,-114.865,-21.91,149.681,-0.2308,-0.562,-1.411,-3.604,-4.557,7.823,-0.001819,0.000678,-0.000687
173,1711294280.7483053,4.300434112548828,-114.869,-21.911,149.682,-0.2279,-0.5541,-1.4131,-3.641,-4.56,7.749,0.00027,0.0009,0.000106
174,1711294280.7731993,4.32532811164856,-114.873,-21.912,149.684,-0.2289,-0.5541,-1.4132,-3.605,-4.536,7.8,-0.001716,0.0,0.000202
175,1711294280.7982516,4.3503804206848145,-114.873,-21.912,149.683,-0.2279,-0.5492,-1.411,-3.636,-4.582,7.807,-0.001499,0.000929,-0.000964
176,1711294280.825921,4.378049850463867,-114.872,-21.912,149.682,-0.2289,-0.5581,-1.4132,-3.631,-4.562,7.777,0.00135,0.00048,-0.000498
177,1711294280.8483896,4.400518417358398,-114.873,-21.913,149.686,-0.2299,-0.558,-1.4088,-3.643,-4.562,7.81,0.000921,0.000227,-0.000577
178,1711294280.873196,4.4253246784210205,-114.874,-21.913,149.685,-0.2298,-0.5521,-1.41,-3.632,-4.554,7.793,7e-05,0.000391,-0.001712
179,1711294280.897753,4.4498817920684814,-114.876,-21.913,149.685,-0.2271,-0.5571,-1.4109,-3.609,-4.544,7.8,0.000964,-0.000965,-0.001482
180,1711294280.9239874,4.476116180419922,-114.879,-21.911,149.686,-0.2261,-0.5532,-1.4141,-3.618,-4.551,7.792,0.001286,0.000519,0.00119
181,1711294280.9476993,4.499828100204468,-114.88,-21.911,149.684,-0.229,-0.56,-1.4087,-3.627,-4.553,7.756,-0.001043,0.000336,4.7e-05
182,1711294280.9736328,4.525761604309082,-114.879,-21.911,149.685,-0.2289,-0.5571,-1.4132,-3.604,-4.564,7.776,-7.5e-05,-0.000307,-0.000218
183,1711294280.9982746,4.550403356552124,-114.879,-21.91,149.685,-0.2298,-0.5551,-1.4056,-3.629,-4.535,7.778,0.000308,0.000366,-0.000949
184,1711294281.0229785,4.5751073360443115,-114.88,-21.91,149.686,-0.227,-0.5522,-1.4087,-3.629,-4.561,7.79,-0.000779,-0.00038,0.000718
185,1711294281.0476813,4.5998101234436035,-114.88,-21.911,149.684,-0.2308,-0.56,-1.4067,-3.648,-4.558,7.774,-0.001399,0.0015,4.8e-05
186,1711294281.0726366,4.624765396118164,-114.879,-21.91,149.683,-0.228,-0.5591,-1.4087,-3.638,-4.551,7.754,0.000289,-0.000891,-0.001157
187,1711294281.0993114,4.651440143585205,-114.881,-21.911,149.686,-0.2316,-0.553,-1.4134,-3.632,-4.568,7.779,-0.000159,-0.000378,0.000313
188,1711294281.1243193,4.676448106765747,-114.882,-21.909,149.683,-0.2298,-0.557,-1.411,-3.619,-4.543,7.753,-0.000743,-4.9e-05,0.00028
189,1711294281.1481261,4.700254917144775,-114.884,-21.91,149.684,-0.2298,-0.556,-1.4143,-3.625,-4.554,7.784,-0.000416,0.000303,-0.000178
190,1711294281.1733074,4.725436210632324,-114.882,-21.911,149.686,-0.228,-0.5591,-1.4131,-3.645,-4.527,7.814,0.001183,0.000863,0.00051
191,1711294281.1991088,4.751237630844116,-114.884,-21.911,149.687,-0.2298,-0.5551,-1.4121,-3.639,-4.559,7.81,-0.002732,0.000334,-0.000426
192,1711294281.222582,4.7747108936309814,-114.885,-21.912,149.686,-0.2289,-0.5581,-1.411,-3.654,-4.559,7.811,0.001465,0.000189,0.001145
193,1711294281.2476509,4.799779653549194,-114.885,-21.911,149.685,-0.2299,-0.561,-1.4132,-3.614,-4.545,7.791,0.000278,0.000771,-0.000375
194,1711294281.2753174,4.827446222305298,-114.885,-21.912,149.688,-0.2279,-0.5541,-1.4109,-3.667,-4.571,7.83,0.00299,0.0005,-0.000106
195,1711294281.299458,4.851586818695068,-114.883,-21.912,149.685,-0.2307,-0.554,-1.4111,-3.621,-4.562,7.786,-0.002685,0.000334,-0.000651
196,1711294281.3224602,4.874588966369629,-114.882,-21.914,149.685,-0.2288,-0.5531,-1.4187,-3.647,-4.554,7.771,0.00454,0.000259,0.000216
197,1711294281.3477306,4.899859428405762,-114.881,-21.913,149.687,-0.2279,-0.5541,-1.4109,-3.654,-4.551,7.79,0.000299,-0.00158,0.000968
198,1711294281.3727262,4.92485499382019,-114.882,-21.912,149.687,-0.228,-0.5561,-1.4098,-3.611,-4.536,7.813,0.000229,0.000457,0.000805
199,1711294281.4011033,4.953232049942017,-114.883,-21.914,149.687,-0.2261,-0.5571,-1.4086,-3.625,-4.551,7.765,0.001872,0.000673,0.002678
200,1711294281.4232464,4.975375175476074,-114.886,-21.914,149.687,-0.2271,-0.5581,-1.4097,-3.617,-4.563,7.794,0.000405,0.00083,1.1e-05
201,1711294281.4478974,5.000026226043701,-114.884,-21.913,149.686,-0.227,-0.5522,-1.4131,-3.629,-4.544,7.787,0.000532,-0.000131,0.000169
202,1711294281.473294,5.025422811508179,-114.885,-21.913,149.688,-0.228,-0.5571,-1.4109,-3.622,-4.559,7.806,0.000876,0.000131,0.001077
203,1711294281.4988518,5.050980567932129,-114.885,-21.914,149.69,-0.2307,-0.5521,-1.4111,-3.636,-4.539,7.778,0.000934,0.001399,-0.000252
204,1711294281.5242157,5.0763444900512695,-114.886,-21.914,149.688,-0.228,-0.5591,-1.412,-3.62,-4.528,7.777,-0.001369,5.8e-05,-0.00016
205,1711294281.5477238,5.099852561950684,-114.883,-21.913,149.685,-0.228,-0.5551,-1.4098,-3.632,-4.558,7.747,0.000951,0.001248,0.000138
206,1711294281.5734515,5.125580310821533,-114.884,-21.914,149.686,-0.228,-0.5591,-1.4131,-3.633,-4.533,7.803,0.002084,-0.000558,-0.000501
207,1711294281.5973089,5.149437665939331,-114.883,-21.913,149.689,-0.2271,-0.5571,-1.4076,-3.585,-4.542,7.795,-0.000258,0.001347,-4e-06
208,1711294281.6276035,5.179732322692871,-114.884,-21.914,149.688,-0.2271,-0.5581,-1.4097,-3.627,-4.532,7.795,-0.002013,-0.000266,0.000303
209,1711294281.648661,5.2007896900177,-114.88,-21.915,149.686,-0.2261,-0.5581,-1.4119,-3.65,-4.568,7.775,0.000342,0.000641,-0.001353
210,1711294281.6732907,5.225419521331787,-114.879,-21.916,149.686,-0.2262,-0.5611,-1.4107,-3.617,-4.555,7.781,0.001836,0.000515,4e-06
211,1711294281.697582,5.24971079826355,-114.879,-21.917,149.688,-0.2289,-0.5551,-1.411,-3.617,-4.541,7.802,0.000655,0.001082,-0.000377
212,1711294281.7242947,5.276423454284668,-114.881,-21.917,149.689,-0.2271,-0.5581,-1.4097,-3.626,-4.563,7.764,0.000727,-0.00084,0.000332
213,1711294281.7484715,5.300600290298462,-114.88,-21.919,149.687,-0.2271,-0.5571,-1.413,-3.628,-4.538,7.775,-0.000781,0.000948,-0.000496
214,1711294281.7734356,5.325564384460449,-114.881,-21.918,149.686,-0.228,-0.5561,-1.4098,-3.636,-4.546,7.786,-1e-06,0.000311,-0.000247
215,1711294281.798448,5.350576877593994,-114.88,-21.919,149.687,-0.2299,-0.559,-1.4066,-3.649,-4.559,7.771,-0.000156,9.6e-05,0.000853
216,1711294281.825594,5.37772274017334,-114.879,-21.919,149.686,-0.2317,-0.557,-1.4068,-3.611,-4.538,7.782,-0.000556,-0.000121,-0.001016
217,1711294281.8481495,5.400278329849243,-114.88,-21.92,149.687,-0.227,-0.5522,-1.4076,-3.646,-4.542,7.786,-0.001316,0.000558,-0.000355
218,1711294281.87632,5.428448677062988,-114.879,-21.921,149.688,-0.228,-0.5591,-1.4065,-3.634,-4.566,7.802,-0.001099,-0.000127,-0.000118
219,1711294281.8986967,5.450825452804565,-114.877,-21.921,149.686,-0.2298,-0.5521,-1.4111,-3.632,-4.545,7.776,-0.001384,0.000295,-0.000971
220,1711294281.92438,5.476508855819702,-114.877,-21.922,149.686,-0.2289,-0.5551,-1.4077,-3.651,-4.566,7.739,0.00088,0.000695,0.000818
221,1711294281.9481647,5.500293493270874,-114.878,-21.924,149.687,-0.228,-0.561,-1.4098,-3.627,-4.531,7.77,0.000644,0.0006,0.000381
222,1711294281.973183,5.525311708450317,-114.878,-21.926,149.689,-0.2299,-0.558,-1.4055,-3.637,-4.565,7.819,-0.000669,-3e-05,-2.1e-05
223,1711294282.0017462,5.553874969482422,-114.878,-21.925,149.688,-0.228,-0.5601,-1.4087,-3.612,-4.575,7.784,8.7e-05,0.000945,0.000806
224,1711294282.0257325,5.577861309051514,-114.876,-21.923,149.686,-0.2316,-0.553,-1.4057,-3.612,-4.551,7.773,0.000352,-2e-05,-0.001883
225,1711294282.0482943,5.600423097610474,-114.876,-21.922,149.686,-0.2299,-0.56,-1.4077,-3.632,-4.544,7.791,-0.000379,-0.001746,-0.000511
226,1711294282.0729914,5.625120162963867,-114.877,-21.922,149.685,-0.2262,-0.5611,-1.4042,-3.634,-4.555,7.797,-0.000717,-0.000246,0.000142
227,1711294282.0988002,5.650928974151611,-114.875,-21.92,149.685,-0.2308,-0.558,-1.4111,-3.611,-4.562,7.76,0.001296,-0.001005,-0.000888
228,1711294282.1286376,5.680766344070435,-114.874,-21.919,149.685,-0.229,-0.559,-1.4055,-3.605,-4.527,7.783,-0.00069,-0.000915,-0.000578
229,1711294282.1479094,5.700038194656372,-114.873,-21.919,149.684,-0.2298,-0.5541,-1.4078,-3.637,-4.556,7.756,-0.002051,-0.00022,-0.000157
230,1711294282.1729088,5.725037574768066,-114.873,-21.917,149.681,-0.2308,-0.56,-1.4045,-3.629,-4.542,7.766,-8.4e-05,-3.1e-05,-0.000358
231,1711294282.1978598,5.749988555908203,-114.871,-21.917,149.683,-0.2299,-0.558,-1.4088,-3.615,-4.548,7.803,5.3e-05,-0.001226,0.000365
232,1711294282.2229624,5.775091171264648,-114.87,-21.916,149.684,-0.2317,-0.558,-1.4089,-3.627,-4.533,7.816,-0.00125,0.000777,-0.000785
233,1711294282.2480233,5.800152063369751,-114.87,-21.916,149.684,-0.2299,-0.558,-1.4099,-3.638,-4.552,7.774,-0.001166,0.000866,-0.000391
234,1711294282.274622,5.826750755310059,-114.87,-21.916,149.683,-0.2308,-0.562,-1.4088,-3.605,-4.543,7.775,-0.000693,-0.001213,-0.000256
235,1711294282.2983408,5.850469589233398,-114.871,-21.917,149.685,-0.2326,-0.557,-1.4079,-3.644,-4.563,7.777,-0.00101,0.000706,-0.000797
236,1711294282.323157,5.875285863876343,-114.871,-21.918,149.684,-0.2307,-0.5531,-1.4089,-3.603,-4.557,7.778,-0.000579,-0.001265,-0.000323
237,1711294282.3479893,5.900118112564087,-114.872,-21.917,149.685,-0.2308,-0.561,-1.4034,-3.626,-4.567,7.774,0.000537,-0.000226,0.000535
238,1711294282.3741462,5.926275014877319,-114.874,-21.915,149.684,-0.2299,-0.561,-1.411,-3.636,-4.509,7.81,0.000429,0.000291,-0.001683
239,1711294282.398148,5.950276851654053,-114.875,-21.915,149.684,-0.2308,-0.556,-1.4089,-3.633,-4.576,7.806,0.00088,0.000836,0.000859
240,1711294282.4250307,5.97715950012207,-114.876,-21.914,149.683,-0.228,-0.5591,-1.4054,-3.62,-4.557,7.766,0.001102,0.001286,-0.000108
241,1711294282.4481544,6.000283241271973,-114.876,-21.914,149.685,-0.2298,-0.5521,-1.4045,-3.617,-4.533,7.834,0.00124,9.5e-05,-0.00014
242,1711294282.4731584,6.02528715133667,-114.876,-21.912,149.686,-0.2309,-0.564,-1.4055,-3.613,-4.522,7.784,0.002194,0.001239,0.000595
243,1711294282.4980083,6.050137042999268,-114.878,-21.913,149.685,-0.2299,-0.563,-1.4099,-3.611,-4.564,7.758,0.001271,0.000887,0.000995
244,1711294282.5230834,6.075212240219116,-114.88,-21.914,149.683,-0.2289,-0.5551,-1.4132,-3.635,-4.546,7.775,0.000365,0.000389,-0.000124
245,1711294282.5492976,6.101426362991333,-114.882,-21.914,149.684,-0.2289,-0.5571,-1.4088,-3.619,-4.544,7.776,0.000983,-0.000468,0.000733
246,1711294282.5731742,6.125303030014038,-114.883,-21.911,149.684,-0.2308,-0.558,-1.4122,-3.607,-4.555,7.761,0.001153,-0.000399,0.000293
247,1711294282.599041,6.151169776916504,-114.882,-21.911,149.682,-0.2298,-0.5561,-1.4056,-3.629,-4.544,7.806,-0.000705,0.000114,0.000159
248,1711294282.6230156,6.17514443397522,-114.881,-21.91,149.682,-0.2308,-0.558,-1.4078,-3.628,-4.541,7.799,0.002273,-0.000574,3.2e-05
249,1711294282.6476798,6.199808597564697,-114.881,-21.911,149.683,-0.2308,-0.559,-1.4056,-3.623,-4.561,7.773,0.000538,0.000262,0.000401
250,1711294282.6734846,6.225613355636597,-114.882,-21.91,149.683,-0.2298,-0.5551,-1.41,-3.625,-4.549,7.809,0.000416,-0.000132,-0.00024
251,1711294282.6982398,6.250368595123291,-114.883,-21.911,149.682,-0.2308,-0.559,-1.4067,-3.629,-4.544,7.763,0.001126,-0.001582,0.000159
252,1711294282.7231238,6.2752525806427,-114.887,-21.909,149.684,-0.2298,-0.5531,-1.4045,-3.619,-4.546,7.792,0.00154,0.00068,0.000395
253,1711294282.7481587,6.300287485122681,-114.887,-21.91,149.684,-0.228,-0.5591,-1.4076,-3.634,-4.546,7.776,-0.002016,0.001038,0.000865
254,1711294282.7750123,6.327141046524048,-114.886,-21.91,149.681,-0.2317,-0.558,-1.4078,-3.65,-4.555,7.732,-0.001978,0.000982,-0.001462
255,1711294282.7975993,6.349728107452393,-114.885,-21.91,149.68,-0.228,-0.5591,-1.4087,-3.636,-4.543,7.782,0.001527,0.000128,0.000443
256,1711294282.8235612,6.37568998336792,-114.884,-21.909,149.683,-0.229,-0.565,-1.4054,-3.609,-4.55,7.813,0.002018,-0.000565,-0.000271
257,1711294282.848371,6.4004998207092285,-114.885,-21.907,149.684,-0.2308,-0.557,-1.4078,-3.615,-4.537,7.774,-0.001412,0.000761,-3.2e-05
258,1711294282.873087,6.425215721130371,-114.886,-21.909,149.681,-0.2289,-0.5561,-1.4121,-3.628,-4.546,7.753,-0.00028,0.000261,0.000414
259,1711294282.8983893,6.4505181312561035,-114.886,-21.91,149.682,-0.2299,-0.562,-1.4055,-3.647,-4.544,7.744,0.003068,-0.000967,0.001355
260,1711294282.922682,6.474810838699341,-114.884,-21.91,149.685,-0.2308,-0.562,-1.4088,-3.617,-4.54,7.813,0.002817,0.000423,7.1e-05
261,1711294282.9475303,6.499659061431885,-114.885,-21.909,149.683,-0.2298,-0.557,-1.4088,-3.616,-4.56,7.761,-0.001267,-0.000581,0.000846
262,1711294282.9725995,6.524728298187256,-114.885,-21.91,149.682,-0.229,-0.561,-1.4076,-3.644,-4.549,7.774,0.001778,-0.000206,-4.7e-05
263,1711294282.9979932,6.550122022628784,-114.886,-21.91,149.682,-0.2289,-0.5581,-1.411,-3.626,-4.547,7.8,-0.000674,0.000345,-9.9e-05
264,1711294283.0229533,6.575082063674927,-114.887,-21.91,149.681,-0.2289,-0.5541,-1.4121,-3.618,-4.547,7.767,0.00041,0.001309,-0.00018
265,1711294283.0484288,6.600557565689087,-114.887,-21.908,149.683,-0.229,-0.56,-1.4109,-3.628,-4.546,7.777,0.000129,-0.000305,7.8e-05
266,1711294283.0731893,6.6253180503845215,-114.887,-21.908,149.683,-0.2308,-0.561,-1.4132,-3.625,-4.558,7.794,-0.000209,-0.001777,-0.000867
267,1711294283.0984254,6.650554180145264,-114.889,-21.908,149.685,-0.2317,-0.557,-1.409,-3.596,-4.552,7.797,-0.000184,0.000162,0.000535
268,1711294283.1252124,6.6773412227630615,-114.887,-21.906,149.685,-0.228,-0.5561,-1.4131,-3.649,-4.565,7.797,-0.000797,0.001013,-0.000698
269,1711294283.1474068,6.699535608291626,-114.886,-21.906,149.685,-0.228,-0.5571,-1.4076,-3.64,-4.55,7.783,-0.00113,1.9e-05,-0.000366
270,1711294283.173875,6.726003885269165,-114.887,-21.908,149.684,-0.2289,-0.5581,-1.4121,-3.632,-4.551,7.752,0.001259,-0.00118,0.000916
271,1711294283.1980457,6.750174522399902,-114.888,-21.907,149.689,-0.2308,-0.558,-1.4089,-3.612,-4.545,7.813,0.001669,-0.000746,-0.000279
272,1711294283.2233436,6.775472402572632,-114.892,-21.906,149.69,-0.2262,-0.5601,-1.4108,-3.614,-4.572,7.794,-0.002562,0.001521,-0.000512
273,1711294283.2474272,6.799556016921997,-114.891,-21.908,149.686,-0.2298,-0.557,-1.4099,-3.641,-4.564,7.739,-0.000234,0.000291,-0.000114
274,1711294283.2735395,6.8256683349609375,-114.891,-21.909,149.688,-0.2308,-0.559,-1.4089,-3.651,-4.56,7.777,0.003909,-0.000433,0.000785
275,1711294283.2973473,6.849476099014282,-114.889,-21.908,149.691,-0.229,-0.559,-1.4066,-3.622,-4.547,7.818,0.000138,-0.001239,-0.000928
276,1711294283.3238485,6.875977277755737,-114.892,-21.908,149.689,-0.2299,-0.563,-1.4055,-3.589,-4.58,7.792,-0.003443,0.000753,6.9e-05
277,1711294283.347421,6.899549722671509,-114.892,-21.906,149.686,-0.2289,-0.5541,-1.4121,-3.603,-4.55,7.785,0.000632,-0.000145,-0.000892
278,1711294283.3764534,6.928582191467285,-114.891,-21.908,149.688,-0.2298,-0.5551,-1.4111,-3.635,-4.543,7.77,0.002052,-0.000414,-0.000611
279,1711294283.399011,6.951139688491821,-114.892,-21.908,149.691,-0.2271,-0.5581,-1.4108,-3.618,-4.546,7.792,-0.000166,-0.000281,-0.00012
280,1711294283.4255831,6.977711915969849,-114.891,-21.906,149.689,-0.2289,-0.5531,-1.4099,-3.589,-4.537,7.784,-0.001784,0.000262,-0.000524
281,1711294283.448234,7.000362873077393,-114.889,-21.905,149.687,-0.228,-0.5591,-1.412,-3.628,-4.559,7.798,0.000954,0.001778,0.000273
282,1711294283.4735723,7.02570104598999,-114.888,-21.906,149.686,-0.2299,-0.559,-1.411,-3.653,-4.556,7.797,-0.000181,3.8e-05,-0.000232
283,1711294283.4982011,7.050329923629761,-114.889,-21.909,149.689,-0.2308,-0.56,-1.4122,-3.636,-4.538,7.795,0.003544,-8.3e-05,5.7e-05
284,1711294283.52522,7.077348709106445,-114.889,-21.908,149.694,-0.2308,-0.562,-1.4066,-3.616,-4.533,7.802,-0.000582,4.3e-05,-0.000568
285,1711294283.5480669,7.100195646286011,-114.888,-21.906,149.687,-0.2289,-0.559,-1.412,-3.619,-4.564,7.759,-0.002911,0.001317,-0.000509
286,1711294283.5732152,7.1253440380096436,-114.885,-21.907,149.685,-0.2289,-0.5561,-1.4088,-3.643,-4.56,7.743,0.005081,-3.3e-05,0.000887
287,1711294283.5984178,7.150546550750732,-114.886,-21.909,149.691,-0.2308,-0.56,-1.4078,-3.639,-4.519,7.797,0.003269,0.000101,0.000977
288,1711294283.6235056,7.175634384155273,-114.887,-21.91,149.697,-0.229,-0.56,-1.4055,-3.631,-4.543,7.799,-0.001025,0.000231,0.000668
289,1711294283.6488404,7.200969219207764,-114.885,-21.91,149.69,-0.2299,-0.56,-1.4099,-3.599,-4.563,7.763,-0.00366,0.001628,-0.000696
290,1711294283.673977,7.226105690002441,-114.885,-21.91,149.69,-0.228,-0.5571,-1.4142,-3.633,-4.571,7.749,0.003334,-5e-06,0.000575
291,1711294283.6979012,7.250030040740967,-114.886,-21.91,149.693,-0.228,-0.5591,-1.4087,-3.639,-4.539,7.81,-0.000757,-0.00126,-0.000316
292,1711294283.7230034,7.275132179260254,-114.886,-21.91,149.692,-0.2289,-0.5571,-1.4033,-3.611,-4.542,7.779,-0.000758,-0.000657,-0.000595
293,1711294283.7479832,7.300112009048462,-114.885,-21.911,149.692,-0.228,-0.5561,-1.4109,-3.634,-4.549,7.795,-0.000125,-0.001037,-0.000634
294,1711294283.7730036,7.325132369995117,-114.886,-21.909,149.693,-0.2281,-0.561,-1.4087,-3.638,-4.562,7.776,0.00072,0.000317,-8e-06
295,1711294283.7980561,7.350184917449951,-114.888,-21.911,149.693,-0.228,-0.5601,-1.4098,-3.639,-4.556,7.77,-0.001243,0.000515,-0.00121
296,1711294283.8247523,7.376881122589111,-114.887,-21.912,149.691,-0.2326,-0.559,-1.409,-3.627,-4.559,7.754,-0.000837,-0.000211,-0.000314
297,1711294283.8483524,7.400481224060059,-114.888,-21.912,149.691,-0.229,-0.56,-1.4109,-3.628,-4.542,7.779,0.000899,0.000702,-0.000819
298,1711294283.8730314,7.42516016960144,-114.889,-21.91,149.69,-0.2308,-0.561,-1.4099,-3.607,-4.533,7.772,0.000389,0.000335,-0.000466
299,1711294283.89787,7.44999885559082,-114.888,-21.911,149.689,-0.2299,-0.56,-1.4143,-3.646,-4.569,7.769,-0.002299,-9e-05,-0.00059
300,1711294283.922981,7.475109815597534,-114.886,-21.911,149.69,-0.229,-0.559,-1.4066,-3.633,-4.545,7.757,0.000644,-0.001127,-0.000369
301,1711294283.9478223,7.499951124191284,-114.886,-21.91,149.69,-0.2298,-0.557,-1.4099,-3.644,-4.553,7.779,-0.000765,-7e-06,0.001324
302,1711294283.9741206,7.526249408721924,-114.885,-21.911,149.689,-0.228,-0.5571,-1.412,-3.62,-4.544,7.793,-0.002172,-0.001156,0.000885
303,1711294283.9988372,7.550966024398804,-114.884,-21.911,149.687,-0.2298,-0.556,-1.4132,-3.608,-4.578,7.785,0.000148,-8.8e-05,-0.000802
304,1711294284.0228913,7.57502007484436,-114.884,-21.911,149.689,-0.228,-0.5571,-1.4109,-3.617,-4.536,7.774,0.000327,0.002413,-0.000119
305,1711294284.0496485,7.6017773151397705,-114.885,-21.914,149.693,-0.2307,-0.556,-1.41,-3.66,-4.513,7.809,0.001199,0.001013,0.000275
306,1711294284.073396,7.6255247592926025,-114.884,-21.913,149.69,-0.2299,-0.559,-1.4088,-3.631,-4.583,7.765,-0.003124,-0.000474,-0.00106
307,1711294284.098309,7.650437831878662,-114.882,-21.916,149.688,-0.2299,-0.558,-1.411,-3.616,-4.551,7.758,0.002044,0.000503,0.0017
308,1711294284.123913,7.676041841506958,-114.884,-21.92,149.697,-0.2279,-0.5531,-1.4131,-3.631,-4.52,7.802,0.006499,0.00342,0.003529
309,1711294284.1480455,7.700174331665039,-114.889,-21.923,149.704,-0.2299,-0.558,-1.4033,-3.643,-4.559,7.803,-0.000505,0.002028,0.001935
310,1711294284.17827,7.730398893356323,-114.896,-21.923,149.708,-0.2299,-0.56,-1.4066,-3.542,-4.566,7.738,0.008157,-0.00405,0.010163
311,1711294284.1979187,7.750047445297241,-114.932,-21.927,149.781,-0.2317,-0.558,-1.41,-3.643,-4.465,7.649,0.061582,-0.002678,0.032163
312,1711294284.2227242,7.774852991104126,-114.943,-21.971,149.823,-0.2317,-0.559,-1.4122,-3.936,-4.69,8.276,-0.026859,0.028717,-0.004248
313,1711294284.2481234,7.800252199172974,-114.884,-21.967,149.685,-0.229,-0.56,-1.4109,-3.65,-4.53,7.814,-0.069988,-0.007353,-0.046043
314,1711294284.2738051,7.825933933258057,-114.866,-21.941,149.628,-0.2279,-0.5531,-1.4077,-3.431,-4.394,7.292,0.012968,-0.001716,0.006123
315,1711294284.2980714,7.850200176239014,-114.892,-21.966,149.713,-0.229,-0.562,-1.4076,-3.681,-4.57,7.98,0.062145,0.005095,0.026803
316,1711294284.3234031,7.875531911849976,-114.906,-21.974,149.736,-0.2317,-0.561,-1.4111,-3.781,-4.57,7.984,-0.017941,-0.000991,-0.003837
317,1711294284.3491106,7.901239395141602,-114.883,-21.965,149.678,-0.2281,-0.562,-1.4109,-3.703,-4.578,7.683,-0.036796,0.005255,-0.023046
318,1711294284.3729393,7.925068140029907,-114.844,-21.964,149.616,-0.227,-0.5561,-1.4142,-3.658,-4.585,7.769,-0.041811,0.008811,-0.017637
319,1711294284.3990448,7.951173543930054,-114.797,-21.953,149.55,-0.2262,-0.5581,-1.4097,-3.595,-4.543,7.791,-0.056905,0.036203,-0.036418
320,1711294284.4232035,7.975332260131836,-114.776,-21.962,149.476,-0.2241,-0.5483,-1.4097,-3.395,-4.381,7.508,-0.004392,-0.031183,0.020326
321,1711294284.448024,8.000152826309204,-114.867,-21.966,149.638,-0.2279,-0.5541,-1.4131,-3.655,-4.573,7.541,0.129962,0.005026,0.063294
322,1711294284.4746573,8.026786088943481,-114.886,-22.014,149.729,-0.2327,-0.5629,-1.4111,-3.885,-4.679,8.377,-0.007705,0.01767,-0.003361
323,1711294284.4978623,8.049991130828857,-114.858,-21.988,149.637,-0.2308,-0.557,-1.41,-3.627,-4.519,7.748,-0.074437,-0.018816,-0.035256
324,1711294284.5233145,8.075443267822266,-114.839,-21.976,149.59,-0.2261,-0.5522,-1.413,-3.513,-4.396,7.394,0.005827,0.015262,0.007884
325,1711294284.548613,8.100741863250732,-114.862,-21.997,149.645,-0.229,-0.563,-1.412,-3.734,-4.683,7.944,0.039642,-0.006201,0.016528
326,1711294284.5759504,8.128079175949097,-114.868,-21.994,149.658,-0.2308,-0.557,-1.41,-3.661,-4.613,7.85,-0.003618,0.000999,-0.010238
327,1711294284.5978215,8.1499502658844,-114.853,-21.989,149.632,-0.2308,-0.559,-1.4144,-3.578,-4.462,7.725,-0.011154,0.003108,-0.002921
328,1711294284.6233869,8.17551565170288,-114.86,-21.992,149.643,-0.2262,-0.5631,-1.4096,-3.625,-4.504,7.718,0.012883,0.00181,0.005469
329,1711294284.6483605,8.200489282608032,-114.863,-22.002,149.66,-0.229,-0.561,-1.4131,-3.744,-4.574,7.886,-0.002439,0.003314,0.005025
330,1711294284.6776693,8.229798078536987,-114.86,-22.001,149.635,-0.228,-0.5561,-1.4131,-3.656,-4.649,7.741,-0.019092,-0.002532,-0.008895
331,1711294284.6980917,8.250220537185669,-114.852,-21.997,149.622,-0.2271,-0.5621,-1.4163,-3.569,-4.585,7.677,0.006354,0.001523,-0.00104
332,1711294284.72268,8.274808883666992,-114.858,-21.999,149.656,-0.2299,-0.558,-1.4099,-3.641,-4.451,7.801,0.027005,0.003013,0.008245
333,1711294284.7478523,8.299981117248535,-114.869,-22.005,149.676,-0.2281,-0.563,-1.4119,-3.722,-4.555,7.897,-0.005738,0.000356,0.005025
334,1711294284.7728894,8.325018167495728,-114.861,-22.003,149.642,-0.2271,-0.5621,-1.4097,-3.636,-4.561,7.768,-0.025405,-0.001998,-0.010224
335,1711294284.7978525,8.349981307983398,-114.858,-22.0,149.628,-0.2271,-0.5611,-1.4141,-3.579,-4.572,7.662,0.006987,0.000575,0.002811
336,1711294284.8255394,8.377668142318726,-114.862,-22.004,149.651,-0.2299,-0.563,-1.4088,-3.685,-4.527,7.807,0.016237,0.002171,0.004639
337,1711294284.8474078,8.399536609649658,-114.866,-22.005,149.656,-0.2272,-0.564,-1.4108,-3.73,-4.593,7.874,-0.00835,-0.000552,0.001554
338,1711294284.8768487,8.428977489471436,-114.859,-21.999,149.641,-0.2299,-0.559,-1.411,-3.603,-4.502,7.724,-0.004357,-0.000638,-0.006558
339,1711294284.897658,8.449786901473999,-114.861,-21.996,149.649,-0.2299,-0.56,-1.4154,-3.59,-4.491,7.797,0.005213,-0.000867,0.002991
340,1711294284.9269145,8.479043245315552,-114.865,-22.0,149.651,-0.229,-0.562,-1.4131,-3.708,-4.563,7.847,-0.00698,0.001037,0.002437
341,1711294284.9475207,8.49964952468872,-114.862,-21.997,149.624,-0.229,-0.563,-1.4087,-3.672,-4.656,7.692,-0.019199,-0.004336,-0.008265
342,1711294284.9766421,8.528770923614502,-114.858,-21.987,149.626,-0.2271,-0.5591,-1.4119,-3.585,-4.478,7.684,0.018467,-0.004712,-0.00254
343,1711294284.9992435,8.551372289657593,-114.867,-21.983,149.655,-0.229,-0.562,-1.412,-3.536,-4.429,7.858,0.013505,-0.022028,-0.006488
344,1711294285.025168,8.577296733856201,-114.869,-21.987,149.643,-0.2308,-0.561,-1.411,-3.661,-4.565,7.936,-0.034376,0.009498,0.001029
345,1711294285.0475714,8.599700212478638,-114.86,-21.979,149.604,-0.2271,-0.5581,-1.4119,-3.699,-4.625,7.624,-0.02478,-0.002258,-0.006597
346,1711294285.0750728,8.627201557159424,-114.857,-21.966,149.597,-0.2272,-0.564,-1.4141,-3.632,-4.599,7.713,0.012254,-0.012216,-0.004357
347,1711294285.1006126,8.652741432189941,-114.858,-21.955,149.61,-0.2289,-0.5581,-1.4121,-3.604,-4.565,7.831,0.001479,-0.001894,-0.003347
348,1711294285.1254373,8.677566051483154,-114.858,-21.945,149.604,-0.227,-0.5531,-1.4131,-3.574,-4.526,7.796,-0.006825,-0.002436,-0.002866
349,1711294285.1484845,8.700613260269165,-114.852,-21.941,149.583,-0.2317,-0.559,-1.4067,-3.639,-4.554,7.76,-0.014774,-0.003109,-0.004643
350,1711294285.1765158,8.728644609451294,-114.848,-21.934,149.558,-0.227,-0.5551,-1.4098,-3.685,-4.615,7.712,-0.012379,-0.004931,-0.004767
351,1711294285.1987228,8.75085163116455,-114.842,-21.928,149.549,-0.2289,-0.5581,-1.4132,-3.611,-4.552,7.732,0.001807,-0.002045,-0.003321
352,1711294285.2279563,8.78008508682251,-114.848,-21.928,149.569,-0.2299,-0.559,-1.4121,-3.621,-4.522,7.798,0.013217,-0.002867,0.004986
353,1711294285.248377,8.800505876541138,-114.851,-21.931,149.58,-0.2299,-0.561,-1.4099,-3.587,-4.552,7.895,-0.003176,0.00188,3.7e-05
354,1711294285.2768726,8.829001426696777,-114.848,-21.932,149.566,-0.2298,-0.5561,-1.4077,-3.603,-4.586,7.75,-0.011176,0.004365,-0.00133
355,1711294285.2981856,8.850314378738403,-114.848,-21.935,149.568,-0.2298,-0.5551,-1.4089,-3.725,-4.484,7.589,0.018586,-0.012476,-0.006427
356,1711294285.3247077,8.87683653831482,-114.854,-21.948,149.589,-0.2288,-0.5511,-1.4143,-3.776,-4.517,7.824,0.02202,-0.002528,0.002659
357,1711294285.348522,8.9006507396698,-114.854,-21.942,149.586,-0.2271,-0.5601,-1.4108,-3.613,-4.509,7.802,-0.011893,0.005828,-0.000803
358,1711294285.373261,8.925389766693115,-114.851,-21.942,149.574,-0.2288,-0.5511,-1.4154,-3.542,-4.614,7.757,-0.006108,0.003811,0.001957
359,1711294285.3979702,8.950098991394043,-114.853,-21.948,149.574,-0.2289,-0.5561,-1.4143,-3.611,-4.613,7.73,0.004588,0.004854,0.004961
360,1711294285.4231246,8.975253343582153,-114.858,-21.951,149.584,-0.2308,-0.56,-1.4143,-3.689,-4.55,7.763,0.008959,0.000902,0.001003
361,1711294285.4481704,9.000299215316772,-114.858,-21.952,149.592,-0.2279,-0.5551,-1.4142,-3.64,-4.546,7.811,0.004683,-0.003016,-0.00115
362,1711294285.47438,9.026508808135986,-114.859,-21.95,149.592,-0.2298,-0.557,-1.4088,-3.58,-4.538,7.748,-0.000414,0.000794,-0.001059
363,1711294285.4982336,9.050362348556519,-114.857,-21.951,149.59,-0.228,-0.561,-1.4131,-3.62,-4.548,7.806,-0.003044,0.000612,0.000357
364,1711294285.5258226,9.077951431274414,-114.859,-21.95,149.582,-0.229,-0.561,-1.4142,-3.634,-4.558,7.668,0.005398,-0.011124,-0.003623
365,1711294285.5481763,9.100305080413818,-114.856,-21.955,149.581,-0.2299,-0.56,-1.4154,-3.707,-4.593,7.729,-0.002536,0.00114,-0.005308
366,1711294285.5729957,9.125124454498291,-114.86,-21.949,149.589,-0.2298,-0.558,-1.4165,-3.597,-4.521,7.757,0.00885,-0.001225,-0.000676
367,1711294285.6063917,9.158520460128784,-114.862,-21.947,149.595,-0.2281,-0.562,-1.4152,-3.569,-4.575,7.851,0.001383,-0.000417,-0.001856
368,1711294285.623309,9.175437688827515,-114.867,-21.954,149.591,-0.2289,-0.5581,-1.4132,-3.716,-4.532,7.718,0.004513,0.008053,0.008843
369,1711294285.6482291,9.200357913970947,-114.866,-21.957,149.599,-0.2289,-0.5581,-1.4121,-3.692,-4.554,7.76,0.007667,-0.013199,-0.004044
370,1711294285.6769714,9.229100227355957,-114.864,-21.951,149.599,-0.2297,-0.5501,-1.4166,-3.59,-4.544,7.83,-0.002666,0.000463,-0.002891
371,1711294285.6977942,9.24992299079895,-114.867,-21.95,149.592,-0.228,-0.5601,-1.4131,-3.59,-4.608,7.753,-0.006705,0.003354,0.003232
372,1711294285.7262802,9.278409004211426,-114.867,-21.954,149.591,-0.2288,-0.5521,-1.4132,-3.601,-4.592,7.718,0.005634,0.003169,0.003078
373,1711294285.7484634,9.300592184066772,-114.868,-21.96,149.604,-0.2252,-0.5562,-1.4129,-3.721,-4.495,7.802,0.010908,0.003306,0.003854
374,1711294285.7784307,9.330559492111206,-114.873,-21.967,149.613,-0.2279,-0.5531,-1.4153,-3.677,-4.523,7.793,-0.002981,0.000692,0.00095
375,1711294285.7980363,9.350165128707886,-114.869,-21.964,149.606,-0.2279,-0.5521,-1.4154,-3.566,-4.568,7.78,-0.0108,-9e-05,-0.005004
376,1711294285.8254435,9.377572298049927,-114.869,-21.964,149.595,-0.227,-0.5561,-1.4142,-3.583,-4.591,7.721,-0.003961,0.008161,0.000133
377,1711294285.8480551,9.400183916091919,-114.872,-21.967,149.604,-0.229,-0.563,-1.4153,-3.677,-4.562,7.759,0.008058,-6e-05,0.005029
378,1711294285.8791163,9.43124508857727,-114.878,-21.971,149.615,-0.2326,-0.558,-1.4123,-3.69,-4.531,7.678,0.016651,-0.006865,-0.000859
379,1711294285.8979685,9.45009732246399,-114.876,-21.972,149.614,-0.2289,-0.5571,-1.4186,-3.606,-4.519,7.768,0.009053,-0.006942,-0.002399
380,1711294285.922712,9.474840879440308,-114.88,-21.972,149.615,-0.228,-0.5571,-1.4142,-3.57,-4.565,7.791,-0.003055,0.007261,0.004941
381,1711294285.9479446,9.500073432922363,-114.877,-21.972,149.609,-0.2271,-0.5611,-1.4119,-3.649,-4.561,7.775,-0.002121,0.001197,0.000222
382,1711294285.974969,9.527097702026367,-114.878,-21.975,149.605,-0.2261,-0.5571,-1.4141,-3.682,-4.582,7.696,0.007292,-0.000243,0.000706
383,1711294285.9983823,9.550511121749878,-114.878,-21.973,149.614,-0.2279,-0.5541,-1.4175,-3.64,-4.566,7.773,0.006938,-0.002438,0.00011
384,1711294286.024564,9.576692819595337,-114.882,-21.971,149.621,-0.2298,-0.558,-1.4198,-3.601,-4.531,7.802,0.001339,0.001527,-0.001017
385,1711294286.0504222,9.602550983428955,-114.88,-21.976,149.615,-0.227,-0.5531,-1.4219,-3.673,-4.571,7.844,-0.021465,0.008783,0.007571
386,1711294286.0799038,9.632032632827759,-114.88,-21.977,149.609,-0.227,-0.5561,-1.4207,-3.633,-4.733,7.794,-0.011256,0.00782,0.001688
387,1711294286.097927,9.650055885314941,-114.88,-21.974,149.604,-0.2278,-0.5492,-1.4176,-3.628,-4.643,7.76,0.004014,-0.002068,-0.000747
388,1711294286.1225786,9.674707412719727,-114.884,-21.972,149.618,-0.2279,-0.5551,-1.4186,-3.586,-4.565,7.803,0.009291,-0.002852,-0.002141
389,1711294286.1475499,9.699678659439087,-114.888,-21.972,149.631,-0.227,-0.5531,-1.4164,-3.584,-4.538,7.871,-0.000973,0.000369,0.000697
390,1711294286.1726794,9.72480821609497,-114.889,-21.974,149.618,-0.2261,-0.5532,-1.4174,-3.646,-4.611,7.786,-0.012744,0.005312,-0.000502
391,1711294286.1982908,9.750419616699219,-114.885,-21.973,149.6,-0.2261,-0.5591,-1.4184,-3.556,-4.64,7.676,-0.005985,0.001261,0.002374
392,1711294286.225248,9.777376890182495,-114.882,-21.97,149.61,-0.227,-0.5522,-1.4186,-3.679,-4.538,7.732,-0.001624,-3e-05,-0.007904
393,1711294286.2482448,9.800373554229736,-114.888,-21.971,149.632,-0.2279,-0.5521,-1.4175,-3.672,-4.488,7.862,0.006975,-0.001591,0.000246
394,1711294286.2728026,9.824931383132935,-114.887,-21.971,149.621,-0.2261,-0.5551,-1.4174,-3.66,-4.529,7.784,-0.014297,0.003421,-0.000228
395,1711294286.2976933,9.849822044372559,-114.885,-21.972,149.607,-0.2243,-0.5592,-1.4172,-3.648,-4.562,7.714,-0.003258,1.3e-05,-0.00073
396,1711294286.3238409,9.875969648361206,-114.885,-21.975,149.615,-0.227,-0.5571,-1.4185,-3.664,-4.579,7.75,0.010116,-0.002457,0.001893
397,1711294286.3478446,9.899973392486572,-114.888,-21.975,149.627,-0.2261,-0.5561,-1.4196,-3.613,-4.526,7.818,0.002481,0.000304,0.000581
398,1711294286.3771644,9.929293155670166,-114.886,-21.974,149.626,-0.2279,-0.5541,-1.4197,-3.628,-4.55,7.798,-0.002896,0.000942,-0.000435
399,1711294286.3978934,9.950022220611572,-114.887,-21.977,149.622,-0.2271,-0.5591,-1.4152,-3.611,-4.553,7.724,-0.000562,0.002886,0.001937
400,1711294286.4274004,9.97952914237976,-114.886,-21.979,149.622,-0.2242,-0.5532,-1.4206,-3.647,-4.591,7.795,0.000898,0.001941,0.000916
401,1711294286.4632053,10.015334129333496,-114.887,-21.978,149.622,-0.2279,-0.5551,-1.4175,-3.604,-4.57,7.762,0.002284,-0.000179,-0.000371
402,1711294286.4779332,10.030061960220337,-114.887,-21.976,149.627,-0.2252,-0.5562,-1.4184,-3.629,-4.554,7.801,0.004309,-0.000786,0.000243
403,1711294286.4976487,10.049777507781982,-114.886,-21.976,149.629,-0.2251,-0.5512,-1.4196,-3.611,-4.552,7.779,-0.001427,0.001748,0.000727
404,1711294286.522575,10.074703693389893,-114.884,-21.977,149.622,-0.2252,-0.5591,-1.4206,-3.641,-4.574,7.755,-0.004367,0.002067,-0.001051
405,1711294286.547312,10.099440813064575,-114.884,-21.977,149.618,-0.2242,-0.5542,-1.4195,-3.657,-4.604,7.75,0.001331,-0.000375,-0.001146
406,1711294286.573154,10.125282764434814,-114.882,-21.976,149.623,-0.2242,-0.5532,-1.4206,-3.594,-4.581,7.796,0.005088,-0.000169,0.00056
407,1711294286.5972857,10.149414539337158,-114.883,-21.974,149.629,-0.227,-0.5561,-1.4174,-3.628,-4.553,7.788,0.001105,-0.001281,-0.00051
408,1711294286.6231256,10.175254344940186,-114.883,-21.975,149.627,-0.2261,-0.5581,-1.4185,-3.648,-4.542,7.755,-0.003211,0.000581,0.000834
409,1711294286.6473572,10.199486017227173,-114.883,-21.976,149.622,-0.2243,-0.5562,-1.4195,-3.628,-4.575,7.746,-0.002684,-0.000666,-0.000586
410,1711294286.6735008,10.225629568099976,-114.879,-21.976,149.618,-0.2251,-0.5522,-1.4174,-3.657,-4.598,7.722,-0.000779,0.000224,-0.001886
411,1711294286.6989813,10.251110076904297,-114.88,-21.974,149.621,-0.227,-0.5571,-1.4207,-3.624,-4.542,7.791,0.003079,-0.000877,-0.00021
412,1711294286.7234526,10.275581359863281,-114.881,-21.972,149.626,-0.2261,-0.5581,-1.4207,-3.627,-4.537,7.786,0.001526,0.000378,0.000546
413,1711294286.747238,10.29936671257019,-114.883,-21.973,149.625,-0.2279,-0.5511,-1.4208,-3.649,-4.554,7.792,-0.004353,0.000762,-0.000179
414,1711294286.7731109,10.325239658355713,-114.883,-21.976,149.62,-0.227,-0.5551,-1.4207,-3.65,-4.573,7.757,-0.000686,-0.000424,-0.00225
415,1711294286.7981281,10.35025691986084,-114.88,-21.973,149.62,-0.227,-0.5561,-1.4163,-3.635,-4.554,7.739,0.003353,-0.000513,-0.000662
416,1711294286.8230386,10.37516736984253,-114.879,-21.972,149.625,-0.2262,-0.5611,-1.414,-3.614,-4.521,7.786,0.001463,0.000373,-0.000809
417,1711294286.8483002,10.400429010391235,-114.879,-21.973,149.627,-0.2224,-0.5533,-1.4183,-3.654,-4.555,7.792,-0.001903,0.00076,0.00022
418,1711294286.8733356,10.425464391708374,-114.881,-21.975,149.623,-0.2252,-0.5581,-1.4184,-3.631,-4.573,7.744,-0.001636,0.000437,-0.000121
419,1711294286.897995,10.45012378692627,-114.88,-21.975,149.623,-0.2261,-0.5561,-1.4174,-3.655,-4.573,7.758,0.001365,-0.001482,0.00041
420,1711294286.9239156,10.476044416427612,-114.878,-21.971,149.623,-0.227,-0.5571,-1.4196,-3.603,-4.563,7.751,-0.000898,-0.001266,0.000546
421,1711294286.948263,10.500391721725464,-114.877,-21.971,149.624,-0.2252,-0.5571,-1.4151,-3.599,-4.57,7.792,0.000319,0.001122,1.6e-05
422,1711294286.9745677,10.52669644355774,-114.876,-21.973,149.623,-0.2261,-0.5551,-1.4196,-3.638,-4.577,7.723,-0.00031,0.001354,-0.000273
423,1711294286.998474,10.550602674484253,-114.875,-21.975,149.622,-0.2261,-0.5571,-1.4174,-3.629,-4.567,7.775,0.001447,0.000929,-0.001281
424,1711294287.025801,10.577929735183716,-114.874,-21.974,149.622,-0.228,-0.5571,-1.4153,-3.639,-4.553,7.755,-0.000323,-0.000557,0.000686
425,1711294287.0482051,10.60033392906189,-114.874,-21.972,149.621,-0.228,-0.5571,-1.4164,-3.642,-4.549,7.761,-0.002472,0.003756,0.000163
426,1711294287.0737374,10.625866174697876,-114.871,-21.972,149.621,-0.2242,-0.5552,-1.4184,-3.614,-4.568,7.759,0.003997,0.001157,0.000778
427,1711294287.0982842,10.650413036346436,-114.871,-21.974,149.622,-0.2261,-0.5542,-1.4174,-3.61,-4.549,7.76,0.000468,-0.000714,0.000466
428,1711294287.1263328,10.67846155166626,-114.871,-21.974,149.622,-0.2252,-0.5562,-1.414,-3.637,-4.565,7.813,-0.003479,0.001215,-0.001765
429,1711294287.1484468,10.700575590133667,-114.868,-21.974,149.619,-0.2279,-0.5502,-1.4165,-3.633,-4.607,7.748,-0.001875,0.00059,0.00031
430,1711294287.179689,10.731817722320557,-114.865,-21.971,149.617,-0.2261,-0.5571,-1.4163,-3.617,-4.569,7.781,0.001312,-0.002073,0.000417
431,1711294287.2004085,10.752537250518799,-114.865,-21.969,149.617,-0.2243,-0.5601,-1.4194,-3.619,-4.552,7.76,0.001118,-0.000789,-0.000393
432,1711294287.2277267,10.779855489730835,-114.863,-21.97,149.619,-0.2242,-0.5552,-1.4173,-3.658,-4.51,7.783,-0.00119,0.001137,-0.001566
433,1711294287.2485924,10.800721168518066,-114.863,-21.97,149.618,-0.2271,-0.5581,-1.4174,-3.629,-4.569,7.775,-0.002371,-0.000856,-0.002088
434,1711294287.273357,10.825485706329346,-114.862,-21.967,149.61,-0.2252,-0.5562,-1.4151,-3.598,-4.579,7.743,-0.001219,-0.001866,-0.001649
435,1711294287.298018,10.850146770477295,-114.861,-21.965,149.613,-0.227,-0.5561,-1.4196,-3.614,-4.534,7.757,0.00534,-0.001811,0.000576
436,1711294287.3259928,10.878121614456177,-114.863,-21.962,149.618,-0.2271,-0.5591,-1.4196,-3.669,-4.513,7.807,-0.001553,-0.002319,-0.00169
437,1711294287.3482044,10.900333166122437,-114.866,-21.959,149.614,-0.228,-0.5581,-1.4153,-3.567,-4.529,7.727,0.011222,-0.011434,0.00195
438,1711294287.3740482,10.926177024841309,-114.861,-21.956,149.598,-0.2271,-0.5591,-1.4174,-3.605,-4.621,7.726,-0.00843,-0.002438,-0.006387
439,1711294287.3980865,10.950215339660645,-114.861,-21.953,149.605,-0.227,-0.5551,-1.4186,-3.625,-4.515,7.777,0.002295,0.001855,0.001247
440,1711294287.4234097,10.975538492202759,-114.864,-21.955,149.62,-0.2251,-0.5492,-1.4174,-3.67,-4.541,7.834,0.007439,0.001593,0.001906
441,1711294287.4482381,11.000366926193237,-114.863,-21.957,149.609,-0.227,-0.5521,-1.423,-3.657,-4.591,7.765,-0.011187,0.00068,-0.001959
442,1711294287.4728973,11.025026082992554,-114.86,-21.954,149.596,-0.2279,-0.5501,-1.4187,-3.579,-4.593,7.679,-0.001594,0.002064,-0.004601
443,1711294287.497742,11.049870729446411,-114.862,-21.954,149.608,-0.2289,-0.559,-1.4142,-3.627,-4.542,7.77,0.011482,-0.002071,0.001597
444,1711294287.5243378,11.07646656036377,-114.863,-21.958,149.62,-0.227,-0.5571,-1.4196,-3.708,-4.553,7.831,-0.000434,0.000181,0.002024
445,1711294287.5477715,11.099900245666504,-114.861,-21.958,149.607,-0.2261,-0.5532,-1.4185,-3.661,-4.549,7.76,-0.009648,0.001136,-0.003472
446,1711294287.575568,11.127696752548218,-114.857,-21.955,149.601,-0.2262,-0.5601,-1.4173,-3.606,-4.556,7.731,0.004862,-0.000623,-0.001428
447,1711294287.5980814,11.15021014213562,-114.859,-21.953,149.61,-0.2262,-0.5601,-1.414,-3.615,-4.568,7.788,0.002685,0.000401,0.000905
448,1711294287.623531,11.175659894943237,-114.861,-21.954,149.61,-0.2252,-0.5562,-1.4184,-3.639,-4.577,7.789,-0.004428,0.000866,-0.001144
449,1711294287.648196,11.200324773788452,-114.862,-21.955,149.605,-0.227,-0.5561,-1.4218,-3.617,-4.565,7.687,0.000303,-7e-05,0.000399
450,1711294287.6742513,11.226380109786987,-114.863,-21.956,149.612,-0.2279,-0.5531,-1.4208,-3.663,-4.559,7.801,0.003343,-5.6e-05,-6.4e-05
451,1711294287.6988354,11.250964164733887,-114.863,-21.956,149.61,-0.2271,-0.5581,-1.4174,-3.614,-4.547,7.758,-0.005013,0.0006,0.00056
452,1711294287.7241597,11.276288509368896,-114.862,-21.954,149.605,-0.2289,-0.558,-1.4153,-3.63,-4.548,7.733,-0.000119,0.002072,-0.0005
453,1711294287.7479208,11.300049543380737,-114.865,-21.956,149.611,-0.2279,-0.5531,-1.4164,-3.65,-4.561,7.795,0.003782,-2e-05,0.000727
454,1711294287.773562,11.325690746307373,-114.866,-21.959,149.613,-0.2261,-0.5561,-1.4251,-3.657,-4.564,7.806,-0.002971,-0.000927,-0.000429
455,1711294287.7978354,11.349964141845703,-114.867,-21.959,149.609,-0.226,-0.5522,-1.4196,-3.635,-4.558,7.794,-0.004881,0.000891,-0.001926
456,1711294287.8236752,11.37580394744873,-114.866,-21.957,149.608,-0.228,-0.5561,-1.4164,-3.609,-4.556,7.735,0.003725,0.000897,0.000349
457,1711294287.8479092,11.400038003921509,-114.868,-21.958,149.616,-0.227,-0.5571,-1.4218,-3.632,-4.561,7.84,0.001053,-7.9e-05,0.001007
458,1711294287.8746066,11.426735401153564,-114.869,-21.96,149.612,-0.2243,-0.5562,-1.4184,-3.648,-4.545,7.781,-0.003065,0.001163,-0.000533
459,1711294287.8975124,11.449641227722168,-114.868,-21.961,149.611,-0.228,-0.5561,-1.4164,-3.639,-4.574,7.767,0.001224,0.000537,0.000735
460,1711294287.9271858,11.47931456565857,-114.867,-21.96,149.613,-0.2233,-0.5552,-1.4161,-3.621,-4.596,7.78,0.00149,0.001823,-0.000355
461,1711294287.9479697,11.500098466873169,-114.866,-21.961,149.614,-0.2261,-0.5561,-1.424,-3.628,-4.567,7.79,0.001436,-0.000683,-0.000103
462,1711294287.9726758,11.524804592132568,-114.864,-21.962,149.614,-0.227,-0.5521,-1.423,-3.641,-4.554,7.75,0.002632,0.000554,0.000644
463,1711294287.9983554,11.55048418045044,-114.866,-21.964,149.615,-0.2279,-0.5551,-1.4175,-3.652,-4.56,7.777,0.001848,0.000668,0.000716
464,1711294288.0271869,11.579315662384033,-114.867,-21.964,149.614,-0.227,-0.5561,-1.4174,-3.646,-4.58,7.759,-0.000651,0.000529,0.000193
465,1711294288.0480509,11.600179672241211,-114.862,-21.964,149.612,-0.2233,-0.5542,-1.4216,-3.6,-4.552,7.768,0.001398,0.001174,-0.000332
466,1711294288.0770035,11.629132270812988,-114.864,-21.963,149.614,-0.2233,-0.5532,-1.4194,-3.636,-4.56,7.766,0.003337,0.000685,0.001404
467,1711294288.0977294,11.649858236312866,-114.863,-21.964,149.616,-0.227,-0.5551,-1.4142,-3.656,-4.533,7.761,-7.2e-05,0.000172,-0.00121
468,1711294288.123779,11.675907850265503,-114.861,-21.965,149.615,-0.2243,-0.5562,-1.4162,-3.649,-4.549,7.784,-0.000486,0.002096,0.000817
469,1711294288.1473806,11.699509382247925,-114.859,-21.963,149.613,-0.2261,-0.5581,-1.4141,-3.614,-4.537,7.779,0.002379,-0.000814,-1.9e-05
470,1711294288.1740835,11.7262122631073,-114.863,-21.961,149.615,-0.2252,-0.5601,-1.4217,-3.624,-4.563,7.814,0.000981,7.3e-05,-2.2e-05
471,1711294288.197704,11.74983286857605,-114.863,-21.962,149.613,-0.2252,-0.5542,-1.4163,-3.646,-4.536,7.767,-0.000309,0.000691,-0.00044
472,1711294288.2247365,11.776865243911743,-114.861,-21.962,149.615,-0.2252,-0.5562,-1.4151,-3.637,-4.59,7.771,0.002331,-0.000289,-3.2e-05
473,1711294288.2476306,11.79975938796997,-114.861,-21.962,149.616,-0.227,-0.5561,-1.4163,-3.625,-4.559,7.802,-0.000722,0.000408,0.000971
474,1711294288.2737088,11.8258376121521,-114.86,-21.961,149.614,-0.227,-0.5541,-1.4186,-3.605,-4.552,7.775,-6.9e-05,0.000989,-0.0007
475,1711294288.2978554,11.849984169006348,-114.859,-21.961,149.614,-0.2252,-0.5581,-1.4162,-3.649,-4.529,7.762,0.000217,-0.000625,0.000137
476,1711294288.323891,11.876019716262817,-114.857,-21.963,149.615,-0.2261,-0.5551,-1.4152,-3.66,-4.567,7.781,-0.000879,0.000878,-0.001141
477,1711294288.347911,11.900039672851562,-114.854,-21.961,149.614,-0.2242,-0.5532,-1.414,-3.608,-4.563,7.787,0.000164,-0.001143,-6.3e-05
478,1711294288.3740594,11.926188230514526,-114.853,-21.958,149.616,-0.2243,-0.5562,-1.4129,-3.606,-4.557,7.809,0.001341,0.000708,0.001324
479,1711294288.3985777,11.950706481933594,-114.855,-21.958,149.618,-0.2271,-0.5571,-1.4152,-3.639,-4.553,7.763,-0.001779,0.001024,-0.000415
480,1711294288.423938,11.976066827774048,-114.853,-21.959,149.615,-0.2243,-0.5582,-1.4151,-3.627,-4.556,7.764,-0.002518,-0.001178,-0.001137
481,1711294288.4488842,12.001013040542603,-114.851,-21.958,149.615,-0.2289,-0.558,-1.4153,-3.632,-4.576,7.775,0.002023,-0.000536,-0.000921
482,1711294288.478406,12.030534744262695,-114.849,-21.957,149.617,-0.2271,-0.5591,-1.4097,-3.617,-4.559,7.795,0.001139,0.000949,0.000153
483,1711294288.4982097,12.050338506698608,-114.848,-21.956,149.615,-0.2262,-0.5591,-1.4152,-3.634,-4.561,7.763,-0.003434,-0.001829,-0.000221
484,1711294288.523317,12.075445890426636,-114.848,-21.956,149.612,-0.2271,-0.5591,-1.413,-3.642,-4.564,7.792,-0.001345,0.000691,0.000241
485,1711294288.548372,12.10050082206726,-114.847,-21.956,149.614,-0.2271,-0.5571,-1.413,-3.648,-4.547,7.798,0.00339,-0.002188,-0.000211
486,1711294288.573491,12.125619888305664,-114.847,-21.954,149.616,-0.2253,-0.5611,-1.4162,-3.639,-4.567,7.814,0.002524,0.000302,0.000144
487,1711294288.5981019,12.150230646133423,-114.844,-21.955,149.617,-0.2281,-0.562,-1.4109,-3.621,-4.555,7.804,-0.001494,0.001646,0.001311
488,1711294288.6236277,12.175756454467773,-114.842,-21.956,149.613,-0.228,-0.5571,-1.4142,-3.644,-4.548,7.704,-0.002464,0.001739,0.000494
489,1711294288.6483204,12.200449228286743,-114.837,-21.958,149.61,-0.2261,-0.5561,-1.4097,-3.655,-4.56,7.782,-0.00114,4e-05,-0.001296
490,1711294288.673356,12.225484848022461,-114.834,-21.958,149.61,-0.228,-0.5581,-1.4131,-3.648,-4.558,7.78,0.003338,0.000826,-0.001161
491,1711294288.6983726,12.25050139427185,-114.837,-21.957,149.616,-0.2281,-0.564,-1.4119,-3.628,-4.535,7.814,0.001302,0.00055,-0.000528
492,1711294288.723758,12.27588677406311,-114.837,-21.957,149.615,-0.2262,-0.5601,-1.4086,-3.622,-4.541,7.762,-0.002327,0.001292,-0.000705
493,1711294288.748401,12.300529718399048,-114.835,-21.958,149.613,-0.2262,-0.5591,-1.4119,-3.661,-4.558,7.755,-0.000848,5.4e-05,0.00099
494,1711294288.7732322,12.325361013412476,-114.833,-21.957,149.613,-0.2281,-0.562,-1.4109,-3.623,-4.567,7.741,0.001677,-0.001585,-0.001187
495,1711294288.7984517,12.35058045387268,-114.832,-21.956,149.613,-0.2271,-0.5601,-1.4086,-3.641,-4.567,7.764,0.002411,-0.000308,-0.001204
496,1711294288.8247912,12.376919984817505,-114.83,-21.956,149.615,-0.2271,-0.5561,-1.4065,-3.626,-4.541,7.781,0.001532,0.001216,2.1e-05
497,1711294288.8481522,12.400280952453613,-114.828,-21.958,149.615,-0.228,-0.561,-1.4142,-3.658,-4.544,7.772,3.6e-05,0.001987,0.001008
498,1711294288.8756034,12.427732229232788,-114.828,-21.961,149.613,-0.229,-0.561,-1.4065,-3.641,-4.586,7.774,-0.002063,-0.001354,-0.000381
499,1711294288.8981457,12.450274467468262,-114.827,-21.959,149.611,-0.229,-0.563,-1.4032,-3.562,-4.579,7.79,-0.003838,-0.007252,-0.003172
500,1711294288.9233708,12.475499629974365,-114.825,-21.962,149.614,-0.2282,-0.568,-1.4086,-3.629,-4.492,7.756,-0.000563,-0.002399,-0.000211
501,1711294288.9481564,12.500285148620605,-114.826,-21.961,149.617,-0.2298,-0.556,-1.4099,-3.645,-4.517,7.805,-0.002748,0.003523,0.000979
502,1711294288.9747372,12.52686595916748,-114.826,-21.963,149.614,-0.229,-0.565,-1.4098,-3.647,-4.533,7.721,-0.003455,-0.000368,-0.000752
503,1711294288.998142,12.550270795822144,-114.825,-21.965,149.613,-0.2271,-0.5591,-1.4053,-3.668,-4.552,7.739,0.00358,-0.001374,0.001249
504,1711294289.0236266,12.57575535774231,-114.823,-21.965,149.616,-0.2299,-0.562,-1.4055,-3.623,-4.521,7.791,0.002558,0.001289,-0.000626
505,1711294289.048123,12.6002516746521,-114.821,-21.964,149.616,-0.229,-0.563,-1.4098,-3.639,-4.559,7.784,-0.000884,0.000833,-0.000603
506,1711294289.0769348,12.629063606262207,-114.82,-21.964,149.615,-0.2317,-0.556,-1.4068,-3.649,-4.537,7.759,-0.001679,0.001468,0.000196
507,1711294289.0982382,12.650367021560669,-114.821,-21.967,149.617,-0.229,-0.562,-1.4076,-3.643,-4.571,7.769,0.004184,0.001075,0.002699
508,1711294289.1283069,12.68043565750122,-114.821,-21.969,149.617,-0.23,-0.564,-1.4033,-3.629,-4.56,7.779,0.001313,-0.000812,-0.000261
509,1711294289.1482387,12.700367450714111,-114.817,-21.967,149.616,-0.2318,-0.561,-1.4045,-3.629,-4.56,7.789,0.001665,-0.000144,-0.00114
510,1711294289.1764524,12.728581190109253,-114.816,-21.967,149.617,-0.2299,-0.561,-1.4066,-3.62,-4.559,7.777,0.002328,0.000939,0.001192
511,1711294289.1980329,12.75016164779663,-114.816,-21.968,149.616,-0.2309,-0.562,-1.4012,-3.654,-4.562,7.776,-0.001257,0.001753,-0.000794
512,1711294289.226586,12.778714895248413,-114.815,-21.97,149.614,-0.229,-0.561,-1.4043,-3.635,-4.594,7.754,0.00015,-0.000151,-0.000306
513,1711294289.2479734,12.800102233886719,-114.816,-21.969,149.614,-0.229,-0.564,-1.4021,-3.635,-4.566,7.777,0.002342,-0.001075,-0.000638
514,1711294289.2740908,12.82621955871582,-114.816,-21.967,149.616,-0.2299,-0.559,-1.4088,-3.625,-4.55,7.735,0.000767,7.4e-05,7.4e-05
515,1711294289.2982807,12.850409507751465,-114.817,-21.968,149.615,-0.2308,-0.561,-1.4088,-3.636,-4.553,7.793,-0.001004,-2.5e-05,2.4e-05
516,1711294289.3233395,12.875468254089355,-114.816,-21.968,149.614,-0.2309,-0.5659,-1.4066,-3.644,-4.559,7.763,0.000173,0.000251,-0.000696
517,1711294289.3480804,12.900209188461304,-114.816,-21.967,149.613,-0.2308,-0.562,-1.4055,-3.6,-4.571,7.753,-0.000846,-0.001147,-0.000747
518,1711294289.3729687,12.925097465515137,-114.817,-21.964,149.613,-0.2309,-0.5649,-1.4066,-3.619,-4.602,7.769,-0.001173,-0.000904,-0.000577
519,1711294289.3981264,12.950255155563354,-114.817,-21.962,149.612,-0.2299,-0.56,-1.4033,-3.621,-4.563,7.778,-0.002483,0.00027,0.000133
520,1711294289.423141,12.975269794464111,-114.817,-21.964,149.614,-0.2327,-0.5619,-1.4057,-3.656,-4.563,7.784,0.002443,8.2e-05,0.000601
521,1711294289.4478874,13.000016212463379,-114.819,-21.964,149.616,-0.2308,-0.561,-1.4012,-3.641,-4.575,7.775,-0.001136,-0.000518,0.0
522,1711294289.4764743,13.028603076934814,-114.819,-21.963,149.612,-0.2318,-0.5659,-1.4012,-3.635,-4.576,7.772,-0.002072,0.000555,-0.000229
523,1711294289.497682,13.049810886383057,-114.818,-21.962,149.614,-0.2308,-0.56,-1.4012,-3.594,-4.536,7.778,0.008619,-0.002439,-0.00281
524,1711294289.5242217,13.076350450515747,-114.821,-21.963,149.615,-0.2318,-0.5649,-1.41,-3.647,-4.542,7.78,-0.003476,-0.001637,0.001019
525,1711294289.5474823,13.099611043930054,-114.819,-21.961,149.612,-0.2326,-0.558,-1.4013,-3.63,-4.573,7.759,-0.002307,0.000341,-0.000673
526,1711294289.5744343,13.12656307220459,-114.821,-21.96,149.615,-0.2318,-0.5639,-1.4078,-3.622,-4.545,7.762,0.002615,-0.000569,-0.000458
527,1711294289.5976453,13.149774074554443,-114.821,-21.96,149.615,-0.2318,-0.5639,-1.4089,-3.663,-4.551,7.791,-0.001588,-0.000242,0.000531
528,1711294289.623616,13.175744771957397,-114.819,-21.961,149.609,-0.2318,-0.561,-1.4045,-3.644,-4.564,7.746,-0.003476,-0.001075,-0.001488
529,1711294289.6477044,13.199833154678345,-114.819,-21.959,149.609,-0.2272,-0.566,-1.4075,-3.603,-4.529,7.764,0.000986,0.000421,0.001783
530,1711294289.6749582,13.227087020874023,-114.821,-21.958,149.617,-0.2309,-0.564,-1.4022,-3.655,-4.554,7.816,0.002985,0.001165,0.002558
531,1711294289.69794,13.25006890296936,-114.823,-21.956,149.612,-0.2309,-0.564,-1.4,-3.619,-4.58,7.791,-0.005023,-0.00296,-0.00206
532,1711294289.7227397,13.274868488311768,-114.821,-21.956,149.606,-0.2317,-0.558,-1.4046,-3.612,-4.579,7.753,0.002006,-0.000351,-0.000985
533,1711294289.7479312,13.300060033798218,-114.822,-21.954,149.612,-0.2309,-0.564,-1.4033,-3.63,-4.575,7.782,0.006885,-0.001742,0.001631
534,1711294289.7732995,13.325428247451782,-114.821,-21.952,149.616,-0.23,-0.565,-1.4,-3.636,-4.546,7.819,-0.001845,0.000153,0.001199
535,1711294289.7975736,13.34970235824585,-114.821,-21.949,149.612,-0.23,-0.5669,-1.4043,-3.555,-4.506,7.712,0.01684,-0.006509,0.000881
536,1711294289.8241172,13.376245975494385,-114.819,-21.953,149.604,-0.2317,-0.56,-1.4034,-3.703,-4.603,7.72,-0.006992,0.002091,-0.005179
537,1711294289.847736,13.399864673614502,-114.819,-21.95,149.612,-0.2318,-0.561,-1.4045,-3.644,-4.515,7.767,0.008238,0.002323,0.000932
538,1711294289.875003,13.42713189125061,-114.819,-21.95,149.618,-0.2337,-0.5649,-1.4013,-3.608,-4.532,7.841,-0.004201,-0.000451,-0.001219
539,1711294289.897877,13.450005769729614,-114.82,-21.954,149.613,-0.2346,-0.5649,-1.4014,-3.658,-4.546,7.764,-0.004639,0.003086,-0.000978
540,1711294289.9236104,13.475739240646362,-114.819,-21.957,149.606,-0.229,-0.563,-1.4032,-3.617,-4.597,7.72,-0.003605,0.002356,-6e-05
541,1711294289.9478781,13.500006914138794,-114.82,-21.958,149.611,-0.2336,-0.5609,-1.4013,-3.624,-4.553,7.775,0.009251,0.002242,0.001432
542,1711294289.9734635,13.52559232711792,-114.825,-21.955,149.624,-0.2336,-0.5599,-1.4101,-3.574,-4.583,7.87,0.004875,-0.009639,-0.001876
543,1711294289.9986944,13.550823211669922,-114.827,-21.96,149.622,-0.2309,-0.5669,-1.4044,-3.597,-4.538,7.762,-0.005496,-0.001339,-0.004379
544,1711294290.024329,13.576457738876343,-114.824,-21.968,149.617,-0.23,-0.566,-1.4043,-3.687,-4.558,7.745,0.000524,-0.000157,0.000841
545,1711294290.0475512,13.599679946899414,-114.822,-21.966,149.618,-0.2319,-0.5679,-1.4055,-3.595,-4.628,7.772,0.011758,-0.000836,-0.001424
546,1711294290.0749316,13.627060413360596,-114.82,-21.964,149.625,-0.2346,-0.5619,-1.4025,-3.625,-4.53,7.778,0.00807,-0.000747,0.000486
547,1711294290.0984056,13.650534391403198,-114.823,-21.964,149.627,-0.2318,-0.5629,-1.4034,-3.61,-4.525,7.816,-0.003844,-0.00083,0.001213
548,1711294290.1236076,13.675736427307129,-114.825,-21.965,149.623,-0.2309,-0.5649,-1.4044,-3.619,-4.591,7.794,-0.003264,0.002176,-0.000989
549,1711294290.1481638,13.700292587280273,-114.823,-21.966,149.622,-0.2318,-0.5629,-1.4034,-3.607,-4.599,7.7,0.000687,-0.000758,-0.000253
550,1711294290.174439,13.72656774520874,-114.822,-21.965,149.625,-0.2318,-0.561,-1.4034,-3.616,-4.561,7.793,0.004105,-0.001032,0.000651
551,1711294290.198492,13.75062084197998,-114.822,-21.964,149.628,-0.2318,-0.5659,-1.4067,-3.658,-4.536,7.785,0.001196,-0.001912,-0.000104
552,1711294290.2246494,13.776778221130371,-114.821,-21.966,149.626,-0.2281,-0.564,-1.4086,-3.65,-4.562,7.755,-0.002073,2.6e-05,0.001231
553,1711294290.2482095,13.80033826828003,-114.819,-21.967,149.623,-0.2318,-0.5639,-1.4045,-3.625,-4.578,7.768,-0.001875,0.001248,-0.001577
554,1711294290.2733958,13.82552456855774,-114.82,-21.961,149.621,-0.2338,-0.5698,-1.4012,-3.549,-4.568,7.741,0.00358,-0.027455,-0.016648
555,1711294290.2982974,13.850426197052002,-114.82,-21.967,149.625,-0.2328,-0.5659,-1.4012,-3.588,-4.523,7.803,-0.007351,-0.001639,-0.000484
556,1711294290.3253329,13.877461671829224,-114.82,-21.966,149.626,-0.2318,-0.5649,-1.4034,-3.656,-4.499,7.725,-0.002694,0.002239,-0.001661
557,1711294290.3483026,13.900431394577026,-114.822,-21.967,149.627,-0.2336,-0.5629,-1.4035,-3.662,-4.539,7.756,0.000455,0.000161,9.9e-05
558,1711294290.3748312,13.926959991455078,-114.822,-21.967,149.626,-0.2309,-0.5669,-1.4055,-3.652,-4.551,7.734,0.002155,-0.000629,0.00108
559,1711294290.398438,13.95056676864624,-114.824,-21.966,149.623,-0.2328,-0.5669,-1.4012,-3.591,-4.619,7.842,-0.007616,-0.003947,-0.000788
560,1711294290.428142,13.980270862579346,-114.823,-21.966,149.622,-0.2328,-0.5649,-1.4012,-3.602,-4.471,7.714,-0.006873,0.000987,-0.003809
561,1711294290.448542,14.000670909881592,-114.824,-21.967,149.631,-0.2318,-0.5659,-1.4056,-3.681,-4.527,7.819,0.004293,-0.001473,0.001305
562,1711294290.4782104,14.030339241027832,-114.827,-21.967,149.629,-0.2291,-0.567,-1.4021,-3.649,-4.565,7.782,-0.00025,0.000237,0.00065
563,1711294290.4981675,14.050296306610107,-114.824,-21.966,149.625,-0.2336,-0.5599,-1.4046,-3.62,-4.531,7.744,0.003082,0.001297,0.00014
564,1711294290.5236287,14.075757503509521,-114.828,-21.966,149.625,-0.2317,-0.56,-1.4067,-3.637,-4.585,7.743,0.00257,-0.001051,0.002544
565,1711294290.5480902,14.100219011306763,-114.829,-21.967,149.628,-0.2308,-0.559,-1.4023,-3.647,-4.552,7.758,0.003411,0.001068,-0.000357
566,1711294290.5776534,14.12978219985962,-114.83,-21.966,149.63,-0.2328,-0.5649,-1.4023,-3.607,-4.553,7.793,-0.001566,0.000916,0.000503
567,1711294290.5984128,14.150541543960571,-114.831,-21.966,149.628,-0.2337,-0.5678,-1.4046,-3.622,-4.542,7.779,-0.002265,0.001489,-0.000324
568,1711294290.6237187,14.17584753036499,-114.83,-21.966,149.625,-0.2318,-0.5649,-1.4056,-3.63,-4.579,7.753,-0.002977,0.000474,0.0005
569,1711294290.648479,14.200607776641846,-114.832,-21.966,149.624,-0.2319,-0.5669,-1.4045,-3.631,-4.574,7.763,0.001124,0.001907,0.00026
570,1711294290.676496,14.228624820709229,-114.832,-21.967,149.629,-0.2318,-0.5639,-1.4001,-3.61,-4.554,7.811,0.003198,0.001367,0.00054
571,1711294290.698074,14.250202894210815,-114.833,-21.967,149.631,-0.2318,-0.5639,-1.4001,-3.628,-4.529,7.797,-0.001239,0.0001,0.001372
572,1711294290.725825,14.277953863143921,-114.831,-21.968,149.627,-0.2327,-0.5619,-1.4024,-3.632,-4.563,7.785,-0.00286,0.001265,-0.000743
573,1711294290.7484663,14.300595045089722,-114.831,-21.968,149.626,-0.2337,-0.5669,-1.4035,-3.636,-4.579,7.774,0.001016,0.000377,0.000547
574,1711294290.7737172,14.325845956802368,-114.831,-21.967,149.627,-0.2319,-0.5679,-1.399,-3.641,-4.556,7.767,0.004791,-0.000226,0.000853
575,1711294290.798205,14.35033369064331,-114.833,-21.967,149.629,-0.2327,-0.5639,-1.4013,-3.624,-4.552,7.767,0.002212,-0.002167,-0.000366
576,1711294290.8241413,14.376270055770874,-114.835,-21.966,149.628,-0.2318,-0.562,-1.4023,-3.635,-4.569,7.769,0.000932,5.4e-05,0.000339
577,1711294290.8483708,14.40049958229065,-114.835,-21.963,149.625,-0.23,-0.566,-1.4043,-3.604,-4.583,7.784,-0.003703,0.000714,-0.000162
578,1711294290.874062,14.426190853118896,-114.832,-21.964,149.617,-0.2328,-0.5679,-1.4067,-3.603,-4.664,7.859,-0.019766,-0.002842,-0.003867
579,1711294290.8979142,14.450042963027954,-114.833,-21.962,149.62,-0.2318,-0.5659,-1.399,-3.616,-4.59,7.808,-0.013513,0.005076,4.1e-05
580,1711294290.9283502,14.480479001998901,-114.832,-21.957,149.62,-0.2337,-0.5639,-1.4024,-3.594,-4.59,7.796,0.000195,-0.001392,-0.001908
581,1711294290.948053,14.500181674957275,-114.832,-21.957,149.621,-0.2309,-0.5659,-1.4044,-3.6,-4.556,7.774,0.002154,0.001414,0.002401
582,1711294290.9741983,14.526327133178711,-114.833,-21.958,149.621,-0.2327,-0.5629,-1.4013,-3.64,-4.546,7.778,-0.003127,0.001946,-2.7e-05
583,1711294290.9978027,14.549931526184082,-114.833,-21.96,149.617,-0.23,-0.565,-1.3989,-3.647,-4.592,7.765,-0.002088,-0.001067,-0.000722
584,1711294291.024228,14.576356887817383,-114.833,-21.957,149.617,-0.2337,-0.5659,-1.4024,-3.612,-4.57,7.734,0.004279,-0.001885,9.6e-05
585,1711294291.0478485,14.599977254867554,-114.835,-21.954,149.623,-0.2299,-0.559,-1.4,-3.605,-4.561,7.811,0.004972,-0.00225,-0.000589
586,1711294291.0727751,14.624903917312622,-114.837,-21.951,149.623,-0.2327,-0.5619,-1.4035,-3.625,-4.453,7.691,0.003973,-0.017615,-0.008752
587,1711294291.0975096,14.649638414382935,-114.834,-21.954,149.619,-0.2328,-0.5689,-1.4012,-3.672,-4.56,7.754,-0.009172,0.001797,-0.00178
588,1711294291.123687,14.67581582069397,-114.834,-21.952,149.621,-0.2356,-0.5668,-1.4047,-3.629,-4.568,7.76,0.001963,0.002423,-0.002005
589,1711294291.147735,14.699863910675049,-114.833,-21.953,149.621,-0.2337,-0.5639,-1.4035,-3.591,-4.543,7.786,-0.001765,-1.1e-05,-0.000234
590,1711294291.1748767,14.72700548171997,-114.833,-21.957,149.621,-0.2336,-0.5619,-1.4035,-3.638,-4.547,7.777,-0.000755,0.003858,0.000294
591,1711294291.1978564,14.749985218048096,-114.834,-21.957,149.622,-0.2318,-0.561,-1.4001,-3.598,-4.614,7.796,0.001012,-0.007812,-0.004364
592,1711294291.22257,14.774698734283447,-114.836,-21.961,149.622,-0.2345,-0.5589,-1.4014,-3.615,-4.561,7.734,0.000309,-0.003581,-0.004183
593,1711294291.2477107,14.799839496612549,-114.836,-21.959,149.628,-0.2327,-0.5649,-1.4056,-3.594,-4.554,7.784,0.011168,-0.012514,-0.007168
594,1711294291.273977,14.826105833053589,-114.839,-21.963,149.626,-0.2319,-0.5669,-1.4045,-3.622,-4.509,7.714,-0.00109,-0.004412,-0.000115
595,1711294291.2979434,14.850072145462036,-114.839,-21.965,149.627,-0.2318,-0.5659,-1.4089,-3.696,-4.525,7.752,-0.00397,-0.000428,-0.000977
596,1711294291.3244483,14.876577138900757,-114.84,-21.965,149.627,-0.2318,-0.562,-1.4023,-3.644,-4.527,7.739,-0.001633,-0.000126,0.000327
597,1711294291.3478882,14.900017023086548,-114.842,-21.966,149.628,-0.2309,-0.5649,-1.4,-3.628,-4.536,7.799,-0.012103,-1.9e-05,0.003048
598,1711294291.372935,14.925063848495483,-114.842,-21.968,149.632,-0.2327,-0.5639,-1.4056,-3.614,-4.613,7.868,-0.020195,0.00934,0.000498
599,1711294291.3975346,14.949663400650024,-114.843,-21.964,149.626,-0.2345,-0.5599,-1.4025,-3.595,-4.574,7.741,-0.002396,0.001801,-0.002291
600,1711294291.4237728,14.97590160369873,-114.843,-21.965,149.63,-0.2328,-0.5649,-1.4023,-3.606,-4.569,7.805,0.001485,-0.002787,-0.002219
601,1711294291.447679,14.999807834625244,-114.843,-21.964,149.635,-0.2299,-0.561,-1.4011,-3.63,-4.565,7.818,-0.000198,0.000937,-0.001401
602,1711294291.4737885,15.025917291641235,-114.844,-21.965,149.632,-0.2318,-0.5629,-1.399,-3.609,-4.571,7.808,-0.006043,0.001845,-0.000424
603,1711294291.497538,15.04966688156128,-114.844,-21.964,149.627,-0.2327,-0.5599,-1.4046,-3.614,-4.555,7.724,0.001821,0.001407,0.000599
604,1711294291.524149,15.076277732849121,-114.845,-21.97,149.629,-0.2337,-0.5669,-1.4057,-3.718,-4.567,7.898,-0.018451,0.01275,0.007098
605,1711294291.5483975,15.100526332855225,-114.849,-21.966,149.638,-0.2319,-0.5689,-1.4022,-3.593,-4.593,7.863,0.000439,0.0064,0.007235
606,1711294291.574465,15.126593828201294,-114.848,-21.965,149.634,-0.2337,-0.5688,-1.3991,-3.574,-4.595,7.778,-0.00395,-0.003169,0.001402
607,1711294291.5972571,15.149385929107666,-114.846,-21.968,149.63,-0.2299,-0.562,-1.4011,-3.584,-4.642,7.775,0.000419,-3.9e-05,-0.001911
608,1711294291.6234374,15.17556619644165,-114.844,-21.969,149.63,-0.2327,-0.5609,-1.4068,-3.601,-4.593,7.789,0.000172,0.002079,0.000322
609,1711294291.648037,15.200165748596191,-114.845,-21.968,149.633,-0.2346,-0.5668,-1.4013,-3.623,-4.554,7.763,0.004847,0.001603,-0.001298
610,1711294291.673146,15.225274801254272,-114.847,-21.968,149.635,-0.2337,-0.5629,-1.4002,-3.628,-4.526,7.82,0.002353,-0.002172,-0.000751
611,1711294291.6982977,15.250426530838013,-114.847,-21.969,149.632,-0.2328,-0.5649,-1.4012,-3.639,-4.572,7.794,-0.000464,-0.000813,-0.000938
612,1711294291.7231715,15.27530026435852,-114.844,-21.968,149.631,-0.2317,-0.557,-1.4057,-3.644,-4.546,7.732,-0.000287,-0.000105,-0.000218
613,1711294291.7492545,15.301383256912231,-114.843,-21.968,149.63,-0.23,-0.5679,-1.3999,-3.641,-4.564,7.765,0.000631,0.000581,0.000612
614,1711294291.7737863,15.325915098190308,-114.843,-21.968,149.632,-0.2328,-0.5659,-1.4045,-3.643,-4.57,7.793,0.000974,-0.000578,0.000415
615,1711294291.7983215,15.350450277328491,-114.841,-21.969,149.632,-0.2346,-0.5678,-1.4057,-3.632,-4.532,7.762,-1.5e-05,-0.000228,0.000682
616,1711294291.823182,15.375310897827148,-114.841,-21.97,149.633,-0.23,-0.566,-1.4,-3.642,-4.546,7.789,0.000151,-0.000852,-0.000665
617,1711294291.8479297,15.400058507919312,-114.84,-21.97,149.629,-0.2327,-0.5609,-1.4002,-3.629,-4.579,7.752,-0.001029,0.00072,0.000609
618,1711294291.876176,15.42830491065979,-114.839,-21.969,149.628,-0.2318,-0.5649,-1.4067,-3.624,-4.541,7.775,0.002004,0.000173,0.000519
619,1711294291.8985932,15.450721979141235,-114.841,-21.969,149.631,-0.2337,-0.5678,-1.4013,-3.636,-4.56,7.768,0.002049,-0.000317,-0.000936
620,1711294291.9246535,15.476782321929932,-114.841,-21.972,149.634,-0.2347,-0.5678,-1.4002,-3.645,-4.531,7.785,0.000276,0.000707,0.000253
621,1711294291.9482155,15.500344276428223,-114.842,-21.972,149.632,-0.2327,-0.5599,-1.4035,-3.627,-4.569,7.768,-0.000242,0.001201,-0.001547
622,1711294291.9742267,15.526355504989624,-114.846,-21.971,149.631,-0.2327,-0.5629,-1.3991,-3.644,-4.574,7.771,0.00076,-0.000545,0.001119
623,1711294291.9981868,15.550315618515015,-114.845,-21.97,149.631,-0.2328,-0.5699,-1.4001,-3.622,-4.554,7.758,0.000783,0.001014,-0.000711
624,1711294292.0248048,15.57693362236023,-114.847,-21.97,149.633,-0.2318,-0.5639,-1.4023,-3.631,-4.555,7.784,0.000439,-0.000403,0.001438
625,1711294292.0483708,15.600499629974365,-114.848,-21.971,149.633,-0.2309,-0.563,-1.4011,-3.645,-4.523,7.738,-0.000206,0.00057,-0.000444
626,1711294292.0764663,15.628595113754272,-114.851,-21.972,149.635,-0.2328,-0.5649,-1.398,-3.659,-4.565,7.795,-0.001071,-0.000378,-0.000429
627,1711294292.0981147,15.650243520736694,-114.85,-21.972,149.632,-0.2309,-0.5649,-1.4011,-3.634,-4.558,7.774,0.000434,0.001785,0.000545
628,1711294292.1235995,15.67572832107544,-114.849,-21.971,149.633,-0.2318,-0.5629,-1.4012,-3.612,-4.593,7.817,0.000835,9.6e-05,0.000566
629,1711294292.148228,15.700356721878052,-114.85,-21.969,149.633,-0.2309,-0.564,-1.3967,-3.635,-4.564,7.784,0.000363,0.000914,7.1e-05
630,1711294292.173223,15.725351810455322,-114.849,-21.97,149.633,-0.2328,-0.5649,-1.399,-3.607,-4.559,7.754,0.001048,0.000202,0.000553
631,1711294292.1977532,15.749881982803345,-114.849,-21.969,149.634,-0.2337,-0.5649,-1.4046,-3.616,-4.554,7.764,0.001424,-0.000928,-0.001485
632,1711294292.2265086,15.778637409210205,-114.848,-21.968,149.636,-0.2318,-0.5649,-1.3957,-3.601,-4.558,7.772,0.001764,0.000385,-0.001084
633,1711294292.2483177,15.800446510314941,-114.847,-21.967,149.634,-0.2327,-0.56,-1.3991,-3.631,-4.561,7.802,-0.000903,0.000142,0.000142
634,1711294292.2732158,15.825344562530518,-114.847,-21.966,149.632,-0.2318,-0.5649,-1.4034,-3.675,-4.58,7.765,0.002232,0.001487,0.001014
635,1711294292.2981513,15.850280046463013,-114.847,-21.967,149.633,-0.2308,-0.56,-1.4045,-3.659,-4.541,7.763,0.002062,-0.000332,1e-06
636,1711294292.322761,15.874889850616455,-114.847,-21.967,149.635,-0.2327,-0.5629,-1.4046,-3.613,-4.539,7.771,0.001258,0.000542,-0.000102
637,1711294292.3482876,15.900416374206543,-114.846,-21.967,149.634,-0.2309,-0.5659,-1.3978,-3.638,-4.555,7.762,-0.001643,-0.001312,0.00065
638,1711294292.373636,15.925764799118042,-114.846,-21.967,149.631,-0.2328,-0.5659,-1.3968,-3.647,-4.573,7.76,0.000837,0.000617,-0.000748
639,1711294292.398154,15.95028281211853,-114.845,-21.967,149.632,-0.2319,-0.5669,-1.399,-3.629,-4.552,7.778,0.001223,-3e-06,-9.5e-05
640,1711294292.4269319,15.979060649871826,-114.845,-21.966,149.632,-0.2345,-0.5599,-1.4025,-3.651,-4.554,7.765,0.001114,-0.000142,-0.00141
641,1711294292.4483314,16.000460147857666,-114.845,-21.965,149.63,-0.2327,-0.5619,-1.398,-3.626,-4.542,7.764,-0.000291,0.001125,0.000797
642,1711294292.473779,16.02590775489807,-114.845,-21.963,149.631,-0.2327,-0.5619,-1.4024,-3.602,-4.538,7.743,0.000487,0.001083,0.000804
643,1711294292.4979029,16.050031661987305,-114.844,-21.966,149.632,-0.2319,-0.5669,-1.399,-3.649,-4.56,7.781,0.000858,0.000203,0.000227
644,1711294292.5241787,16.07630753517151,-114.841,-21.966,149.629,-0.2337,-0.5669,-1.4002,-3.622,-4.555,7.735,-0.00049,0.000788,-0.001272
645,1711294292.5482516,16.100380420684814,-114.84,-21.965,149.632,-0.2335,-0.555,-1.4003,-3.613,-4.541,7.789,0.00374,-3.9e-05,0.001495
646,1711294292.5730057,16.125134468078613,-114.844,-21.966,149.636,-0.2337,-0.5688,-1.4013,-3.625,-4.561,7.793,-0.000471,0.000657,0.000607
647,1711294292.5980914,16.150220155715942,-114.842,-21.967,149.633,-0.23,-0.564,-1.4,-3.616,-4.561,7.766,0.000879,0.000368,-0.000854
648,1711294292.6267707,16.17889952659607,-114.84,-21.967,149.629,-0.2327,-0.5619,-1.4046,-3.634,-4.586,7.758,0.002884,-0.001235,0.000924
649,1711294292.6478329,16.19996166229248,-114.84,-21.968,149.63,-0.2328,-0.5669,-1.4056,-3.631,-4.543,7.745,0.006479,0.000131,0.000638
650,1711294292.672789,16.224917888641357,-114.839,-21.967,149.636,-0.2355,-0.5638,-1.397,-3.624,-4.51,7.782,0.004721,-0.000231,-0.000684
651,1711294292.6981583,16.25028705596924,-114.84,-21.97,149.642,-0.2309,-0.5659,-1.4066,-3.671,-4.535,7.758,0.002679,2.3e-05,0.003383
652,1711294292.7250054,16.27713418006897,-114.838,-21.97,149.634,-0.2337,-0.5669,-1.4002,-3.627,-4.559,7.748,-0.005628,-0.000519,-0.003156
653,1711294292.7478342,16.299962997436523,-114.837,-21.968,149.628,-0.2328,-0.5679,-1.3979,-3.586,-4.608,7.738,0.000768,-0.00057,-0.000862
654,1711294292.7727556,16.32488441467285,-114.837,-21.968,149.633,-0.2346,-0.5619,-1.4014,-3.646,-4.571,7.763,0.004229,0.000433,0.002335
655,1711294292.7980294,16.350158214569092,-114.841,-21.97,149.642,-0.2337,-0.5649,-1.3991,-3.676,-4.511,7.784,0.00267,0.000987,0.00127
656,1711294292.8293378,16.38146662712097,-114.839,-21.974,149.643,-0.2328,-0.5649,-1.398,-3.665,-4.53,7.81,-0.000966,0.000598,-0.00058
657,1711294292.8478422,16.39997100830078,-114.839,-21.975,149.638,-0.2337,-0.5649,-1.4002,-3.608,-4.558,7.768,-0.00424,-0.000415,0.000737
658,1711294292.8728766,16.425005435943604,-114.84,-21.974,149.632,-0.2345,-0.5589,-1.3992,-3.609,-4.603,7.766,-0.000259,0.000922,0.000458
659,1711294292.8975964,16.44972515106201,-114.838,-21.974,149.637,-0.2327,-0.5639,-1.398,-3.659,-4.541,7.782,0.006757,0.000555,0.000233
660,1711294292.9231105,16.475239276885986,-114.838,-21.974,149.648,-0.2319,-0.5679,-1.4033,-3.675,-4.478,7.795,0.008605,0.001639,-0.000606
661,1711294292.9476874,16.499816179275513,-114.841,-21.976,149.642,-0.2328,-0.5699,-1.3968,-3.645,-4.562,7.765,-0.004013,-0.00298,-0.001193
662,1711294292.9732037,16.5253324508667,-114.838,-21.977,149.63,-0.2328,-0.5669,-1.4045,-3.62,-4.576,7.7,1.1e-05,0.000537,-0.002595
663,1711294292.9977715,16.54990029335022,-114.842,-21.979,149.644,-0.2327,-0.5599,-1.4013,-3.68,-4.542,7.787,0.013084,-0.000813,0.00461
664,1711294293.0238373,16.575966119766235,-114.846,-21.98,149.657,-0.2328,-0.5659,-1.3968,-3.65,-4.519,7.837,0.001717,-0.00119,0.001373
665,1711294293.0476665,16.5997953414917,-114.845,-21.979,149.65,-0.2318,-0.5639,-1.3979,-3.603,-4.563,7.809,-0.008451,2.1e-05,-0.001871
666,1711294293.078835,16.630963802337646,-114.842,-21.979,149.64,-0.2309,-0.5659,-1.3989,-3.61,-4.524,7.74,-0.000165,0.002235,0.001256
667,1711294293.098298,16.650426864624023,-114.842,-21.981,149.644,-0.2337,-0.5659,-1.3991,-3.668,-4.593,7.769,0.003272,0.001602,0.001179
668,1711294293.1241477,16.676276445388794,-114.842,-21.982,149.647,-0.2346,-0.5629,-1.4003,-3.648,-4.58,7.826,0.001403,-0.000253,-8.9e-05
669,1711294293.1477652,16.699893951416016,-114.838,-21.979,149.648,-0.2328,-0.5679,-1.4012,-3.583,-4.533,7.764,0.000808,-0.000501,-0.001236
670,1711294293.174023,16.726151704788208,-114.841,-21.979,149.652,-0.2327,-0.5609,-1.398,-3.592,-4.557,7.829,0.00057,0.002069,0.001702
671,1711294293.1977422,16.749871015548706,-114.84,-21.98,149.645,-0.2337,-0.5669,-1.4002,-3.656,-4.583,7.746,-0.006357,0.001431,0.000752
672,1711294293.2232096,16.775338411331177,-114.837,-21.984,149.642,-0.2337,-0.5639,-1.4013,-3.663,-4.565,7.731,0.002548,0.000585,0.000634
673,1711294293.248091,16.800219774246216,-114.839,-21.983,149.651,-0.2327,-0.5639,-1.3991,-3.638,-4.555,7.798,0.00731,-0.001492,-0.001303
674,1711294293.273317,16.825445890426636,-114.84,-21.979,149.652,-0.2347,-0.5678,-1.3958,-3.595,-4.543,7.791,-0.001457,0.000329,-0.001288
675,1711294293.2973797,16.84950852394104,-114.842,-21.979,149.646,-0.231,-0.5689,-1.3967,-3.591,-4.57,7.765,-0.003941,0.001489,0.002117
676,1711294293.3231695,16.875298261642456,-114.843,-21.983,149.645,-0.2337,-0.5659,-1.398,-3.68,-4.584,7.788,0.002718,0.001898,0.000295
677,1711294293.3480446,16.90017342567444,-114.843,-21.982,149.647,-0.2337,-0.5639,-1.4002,-3.659,-4.549,7.768,0.002665,-0.001518,-0.001677
678,1711294293.3740675,16.926196336746216,-114.845,-21.979,149.649,-0.2337,-0.5678,-1.398,-3.57,-4.551,7.816,0.000368,-0.001391,-0.002361
679,1711294293.3982062,16.950335025787354,-114.846,-21.977,149.647,-0.2338,-0.5708,-1.3979,-3.623,-4.563,7.767,-0.001463,0.001557,0.000366
680,1711294293.4254277,16.977556467056274,-114.847,-21.978,149.645,-0.2337,-0.5649,-1.4013,-3.661,-4.558,7.74,-0.001033,0.001109,-0.001281
681,1711294293.4485295,17.0006582736969,-114.847,-21.982,149.646,-0.2337,-0.5649,-1.4002,-3.65,-4.567,7.742,0.003161,-0.002207,-0.000109
682,1711294293.473259,17.02538776397705,-114.847,-21.982,149.65,-0.2318,-0.562,-1.3979,-3.64,-4.505,7.776,0.000716,-0.000813,0.000555
683,1711294293.4985301,17.05065894126892,-114.846,-21.98,149.652,-0.2328,-0.5699,-1.3935,-3.607,-4.544,7.788,-0.00069,0.001039,9.1e-05
684,1711294293.5231047,17.075233459472656,-114.847,-21.979,149.649,-0.2328,-0.5689,-1.4001,-3.662,-4.563,7.761,-0.00323,-0.00067,-0.001601
685,1711294293.5478826,17.100011348724365,-114.844,-21.981,149.645,-0.2336,-0.5609,-1.4035,-3.637,-4.557,7.761,0.002066,0.000372,-0.000866
686,1711294293.5731008,17.125229597091675,-114.845,-21.981,149.646,-0.2337,-0.5669,-1.4024,-3.628,-4.576,7.765,0.000402,-0.001093,-0.000115
687,1711294293.598176,17.150304794311523,-114.844,-21.98,149.647,-0.2319,-0.5669,-1.3957,-3.629,-4.576,7.78,0.000245,0.001224,0.000125
688,1711294293.623608,17.175736904144287,-114.844,-21.981,149.648,-0.2318,-0.562,-1.3957,-3.632,-4.56,7.794,-0.001241,0.000126,8.4e-05
689,1711294293.6479979,17.20012664794922,-114.843,-21.98,149.646,-0.2337,-0.5659,-1.4013,-3.608,-4.573,7.752,-0.000761,-0.000262,-0.000936
690,1711294293.6731403,17.225269079208374,-114.842,-21.978,149.644,-0.2356,-0.5688,-1.4025,-3.633,-4.585,7.78,-0.000855,-4.7e-05,-9.2e-05
691,1711294293.6983097,17.250438451766968,-114.843,-21.978,149.644,-0.2346,-0.5639,-1.397,-3.665,-4.543,7.767,0.001471,0.001477,0.000631
692,1711294293.7237177,17.275846481323242,-114.844,-21.982,149.65,-0.2338,-0.5688,-1.3936,-3.678,-4.559,7.807,0.000882,-0.000204,-0.000812
693,1711294293.748604,17.300732851028442,-114.844,-21.981,149.648,-0.2328,-0.5689,-1.3979,-3.618,-4.544,7.787,-0.001692,6.7e-05,-0.001475
694,1711294293.772771,17.324899673461914,-114.842,-21.979,149.645,-0.2328,-0.5649,-1.398,-3.614,-4.58,7.775,-0.000515,0.001503,0.000493
695,1711294293.7980506,17.350179433822632,-114.842,-21.978,149.643,-0.2327,-0.5629,-1.398,-3.635,-4.552,7.756,0.001827,-0.000445,0.000748
696,1711294293.8232796,17.375408411026,-114.843,-21.979,149.646,-0.2327,-0.5609,-1.3969,-3.653,-4.56,7.773,0.001846,-0.000156,-0.000583
697,1711294293.8479638,17.400092601776123,-114.842,-21.98,149.646,-0.2346,-0.5668,-1.3959,-3.63,-4.531,7.793,0.001245,0.001252,-0.000295
698,1711294293.8727987,17.424927473068237,-114.84,-21.977,149.646,-0.2328,-0.5689,-1.3968,-3.597,-4.561,7.799,-0.00274,0.000138,-0.001625
699,1711294293.8977032,17.44983196258545,-114.839,-21.978,149.641,-0.2328,-0.5689,-1.3957,-3.65,-4.532,7.743,0.0014,0.001202,0.000995
700,1711294293.9228213,17.474950075149536,-114.84,-21.981,149.644,-0.2327,-0.5629,-1.3969,-3.67,-4.562,7.769,0.004073,-0.000177,0.000456
701,1711294293.948409,17.500537872314453,-114.843,-21.98,149.647,-0.2338,-0.5708,-1.3947,-3.634,-4.539,7.791,-0.000393,-0.000786,-0.000658
702,1711294293.9733577,17.5254864692688,-114.842,-21.977,149.646,-0.2365,-0.5688,-1.397,-3.607,-4.533,7.793,-0.002134,0.000346,4.9e-05
703,1711294293.998253,17.550381898880005,-114.841,-21.977,149.644,-0.2356,-0.5658,-1.3992,-3.64,-4.582,7.766,-0.0017,0.001598,0.001599
704,1711294294.0315125,17.583641290664673,-114.841,-21.981,149.643,-0.2327,-0.5629,-1.398,-3.675,-4.563,7.768,0.002789,0.000435,0.001346
705,1711294294.0476995,17.599828243255615,-114.841,-21.982,149.65,-0.2347,-0.5678,-1.3947,-3.682,-4.527,7.789,0.00265,-0.002417,-0.002445
706,1711294294.0727923,17.624921083450317,-114.842,-21.98,149.65,-0.2347,-0.5708,-1.3958,-3.611,-4.559,7.809,-0.002002,-0.00109,-0.001194
707,1711294294.0977645,17.649893283843994,-114.841,-21.977,149.643,-0.2347,-0.5678,-1.3969,-3.592,-4.554,7.756,-0.003197,-0.000217,0.000787
708,1711294294.1229684,17.675097227096558,-114.84,-21.979,149.647,-0.2374,-0.5638,-1.3972,-3.681,-4.543,7.803,0.00555,0.008929,0.007653
709,1711294294.1479352,17.700063943862915,-114.845,-21.978,149.65,-0.2338,-0.5688,-1.3947,-3.632,-4.572,7.758,0.001071,-0.00102,0.002805
710,1711294294.172724,17.724852800369263,-114.841,-21.979,149.65,-0.2347,-0.5718,-1.3914,-3.632,-4.563,7.805,0.002949,-0.002811,-0.000957
711,1711294294.197651,17.74977970123291,-114.841,-21.978,149.651,-0.2329,-0.5718,-1.3968,-3.582,-4.582,7.82,-0.000786,0.001581,0.000109
712,1711294294.2228074,17.774936199188232,-114.841,-21.977,149.646,-0.2337,-0.5669,-1.3947,-3.604,-4.566,7.764,-0.00691,0.004309,-0.000506
713,1711294294.2475574,17.799686193466187,-114.839,-21.98,149.64,-0.2329,-0.5718,-1.3935,-3.675,-4.569,7.716,0.001848,-0.001491,0.000438
714,1711294294.272897,17.82502579689026,-114.84,-21.981,149.651,-0.2337,-0.5679,-1.3947,-3.68,-4.509,7.773,0.010478,-0.003825,-0.002241
715,1711294294.2979255,17.850054264068604,-114.845,-21.981,149.659,-0.2338,-0.5718,-1.3979,-3.622,-4.53,7.829,-0.003659,-0.001467,-0.000321
716,1711294294.3229887,17.875117540359497,-114.844,-21.979,149.65,-0.2328,-0.5669,-1.3946,-3.576,-4.588,7.794,-0.007057,0.002174,-0.000827
717,1711294294.3478336,17.899962425231934,-114.842,-21.979,149.645,-0.2337,-0.5669,-1.3925,-3.648,-4.586,7.754,0.001899,0.00156,0.001267
718,1711294294.3728857,17.92501449584961,-114.84,-21.979,149.649,-0.2348,-0.5738,-1.3936,-3.664,-4.572,7.784,0.004247,-0.002113,-0.000766
719,1711294294.397861,17.949989795684814,-114.842,-21.98,149.654,-0.2346,-0.5649,-1.3937,-3.621,-4.55,7.798,-0.000801,-0.000972,-0.001144
720,1711294294.4227567,17.9748854637146,-114.844,-21.978,149.656,-0.2346,-0.5649,-1.3959,-3.609,-4.516,7.79,-0.000545,0.00148,0.001316
721,1711294294.4480646,18.00019335746765,-114.846,-21.979,149.653,-0.2356,-0.5678,-1.4003,-3.616,-4.572,7.783,-0.001827,0.001139,-0.000367
722,1711294294.4728816,18.025010347366333,-114.846,-21.983,149.649,-0.2328,-0.5669,-1.3957,-3.668,-4.566,7.741,-0.001642,0.000202,-0.000582
723,1711294294.4979417,18.0500705242157,-114.846,-21.982,149.652,-0.2329,-0.5728,-1.3935,-3.625,-4.551,7.776,0.004509,-0.001268,-0.001857
724,1711294294.523487,18.075615882873535,-114.849,-21.98,149.657,-0.2365,-0.5638,-1.3938,-3.608,-4.536,7.829,0.002473,0.000653,0.000314
725,1711294294.5481706,18.10029935836792,-114.849,-21.979,149.655,-0.2355,-0.5648,-1.3926,-3.624,-4.537,7.783,-0.004487,0.000861,0.000705
726,1711294294.5734224,18.125551223754883,-114.849,-21.983,149.651,-0.2346,-0.5629,-1.3981,-3.647,-4.587,7.771,-0.001696,0.000625,-0.000316
727,1711294294.5976808,18.14980959892273,-114.848,-21.982,149.649,-0.2338,-0.5708,-1.3979,-3.61,-4.57,7.738,0.001347,-0.000708,-0.001712
728,1711294294.6230822,18.17521095275879,-114.848,-21.98,149.652,-0.2357,-0.5718,-1.3937,-3.621,-4.537,7.777,0.002676,0.000452,-0.00068
729,1711294294.647973,18.200101852416992,-114.849,-21.979,149.653,-0.2374,-0.5678,-1.396,-3.599,-4.546,7.802,-0.00129,5.5e-05,0.000676
730,1711294294.675755,18.22788381576538,-114.848,-21.979,149.65,-0.2355,-0.5648,-1.3992,-3.656,-4.576,7.754,-0.003826,0.002426,0.00022
731,1711294294.698051,18.250179767608643,-114.847,-21.981,149.648,-0.2373,-0.5579,-1.3928,-3.628,-4.542,7.755,0.000139,0.000418,-0.000644
732,1711294294.723838,18.27596688270569,-114.847,-21.979,149.65,-0.2346,-0.5639,-1.3948,-3.614,-4.542,7.78,-0.000786,-0.00374,-0.001575
733,1711294294.748052,18.300180673599243,-114.848,-21.977,149.651,-0.2355,-0.5629,-1.3938,-3.631,-4.582,7.787,-0.012485,0.000595,-0.001909
734,1711294294.7738013,18.32593011856079,-114.847,-21.977,149.647,-0.2366,-0.5708,-1.397,-3.623,-4.533,7.747,0.00215,0.003767,-0.002044
735,1711294294.7975981,18.349726915359497,-114.848,-21.978,149.652,-0.2375,-0.5707,-1.3927,-3.674,-4.499,7.766,-0.000449,0.001477,0.00042
736,1711294294.8234947,18.37562346458435,-114.846,-21.977,149.654,-0.2347,-0.5698,-1.3925,-3.647,-4.529,7.759,0.000719,-0.001492,-0.001202
737,1711294294.8481455,18.4002742767334,-114.845,-21.977,149.65,-0.2347,-0.5718,-1.4002,-3.611,-4.555,7.767,-0.001023,-0.00222,-0.000844
738,1711294294.8735847,18.425713539123535,-114.849,-21.977,149.649,-0.2365,-0.5688,-1.397,-3.649,-4.573,7.738,0.00257,0.001584,0.00336
739,1711294294.897596,18.449724674224854,-114.85,-21.978,149.654,-0.2356,-0.5668,-1.3926,-3.656,-4.529,7.801,0.003138,0.001403,-0.001587
740,1711294294.9234116,18.47554039955139,-114.85,-21.976,149.656,-0.2347,-0.5718,-1.3958,-3.618,-4.564,7.775,0.000452,-0.001792,-0.000511
741,1711294294.948377,18.500505685806274,-114.847,-21.974,149.652,-0.2356,-0.5698,-1.3948,-3.619,-4.571,7.799,-0.002442,0.000467,0.00094
742,1711294294.9742746,18.526403427124023,-114.848,-21.975,149.651,-0.2356,-0.5678,-1.3981,-3.629,-4.543,7.771,0.001676,0.000197,-0.000409
743,1711294294.9986815,18.55081033706665,-114.849,-21.977,149.663,-0.2355,-0.5648,-1.3948,-3.656,-4.503,7.811,0.004513,0.004842,0.003456
744,1711294295.0230682,18.575196981430054,-114.853,-21.974,149.66,-0.2365,-0.5648,-1.3971,-3.645,-4.574,7.784,0.002428,-0.003959,7.7e-05
745,1711294295.048352,18.600480794906616,-114.848,-21.976,149.648,-0.2346,-0.5658,-1.397,-3.63,-4.547,7.725,0.003548,-0.000356,0.001924
746,1711294295.0736794,18.625808238983154,-114.852,-21.978,149.659,-0.2338,-0.5718,-1.3903,-3.677,-4.552,7.782,0.008287,-0.000813,0.004278
747,1711294295.0991209,18.651249647140503,-114.855,-21.979,149.672,-0.2347,-0.5708,-1.3969,-3.665,-4.545,7.853,0.002747,-0.000852,0.002353
748,1711294295.123277,18.675405740737915,-114.854,-21.976,149.665,-0.2346,-0.5649,-1.3981,-3.614,-4.537,7.789,-0.006982,-0.002825,-0.001706
749,1711294295.1483624,18.700491189956665,-114.856,-21.976,149.662,-0.2347,-0.5678,-1.3969,-3.594,-4.58,7.761,0.004586,0.000281,0.00069
750,1711294295.1739297,18.72605848312378,-114.857,-21.974,149.668,-0.2366,-0.5717,-1.397,-3.639,-4.528,7.788,0.00273,-0.00195,-0.001539
751,1711294295.1983182,18.750447034835815,-114.858,-21.977,149.672,-0.2365,-0.5668,-1.3949,-3.636,-4.567,7.825,-0.006318,0.000984,-0.000619
752,1711294295.2235603,18.775689125061035,-114.855,-21.968,149.655,-0.2364,-0.5579,-1.3983,-3.655,-4.504,7.722,-0.018856,0.008711,-2.5e-05
753,1711294295.2487125,18.800841331481934,-114.855,-21.963,149.651,-0.2328,-0.5649,-1.3969,-3.6,-4.577,7.76,-0.004996,-0.008418,-0.001969
754,1711294295.2737892,18.825917959213257,-114.858,-21.964,149.665,-0.2356,-0.5658,-1.3981,-3.625,-4.538,7.782,0.009119,-0.003743,0.000442
755,1711294295.298141,18.85026979446411,-114.861,-21.966,149.674,-0.2337,-0.5678,-1.3969,-3.671,-4.498,7.791,-0.001908,0.00532,0.000729
756,1711294295.3240733,18.87620210647583,-114.863,-21.968,149.663,-0.2346,-0.5668,-1.398,-3.708,-4.513,7.763,-0.014321,-0.002067,0.004446
757,1711294295.3493006,18.901429414749146,-114.856,-21.966,149.657,-0.2356,-0.5668,-1.3981,-3.653,-4.642,7.808,1.9e-05,0.007275,-0.006614
758,1711294295.3736105,18.925739288330078,-114.862,-21.956,149.662,-0.2347,-0.5688,-1.3936,-3.529,-4.652,7.772,0.041503,-0.002543,0.009615
759,1711294295.3989398,18.95106863975525,-114.861,-21.959,149.661,-0.2356,-0.5708,-1.4003,-3.624,-4.614,7.909,-0.020038,0.010629,0.006985
760,1711294295.423178,18.975306749343872,-114.865,-21.962,149.673,-0.2365,-0.5707,-1.4025,-3.578,-4.552,7.84,0.002226,0.009103,0.007174
761,1711294295.4481506,19.000279426574707,-114.867,-21.963,149.667,-0.2365,-0.5698,-1.3992,-3.595,-4.574,7.756,0.001618,8e-06,0.000215
762,1711294295.474646,19.026774883270264,-114.864,-21.964,149.657,-0.2346,-0.5668,-1.3991,-3.624,-4.571,7.73,0.002344,-0.003874,-0.003442
763,1711294295.4981847,19.050313472747803,-114.863,-21.964,149.66,-0.2356,-0.5708,-1.3948,-3.65,-4.55,7.743,0.005464,-0.002647,0.002241
764,1711294295.5245583,19.07668709754944,-114.864,-21.961,149.669,-0.2337,-0.5649,-1.3969,-3.622,-4.522,7.779,0.011083,-0.014417,-0.011917
765,1711294295.5479383,19.100067138671875,-114.865,-21.964,149.665,-0.2355,-0.5638,-1.397,-3.664,-4.47,7.697,-0.002394,-0.014337,-0.005851
766,1711294295.572871,19.12499976158142,-114.864,-21.966,149.663,-0.2346,-0.5649,-1.3981,-3.678,-4.546,7.861,-0.009375,0.00385,0.004552
767,1711294295.5978851,19.15001392364502,-114.863,-21.959,149.657,-0.2328,-0.5669,-1.3935,-3.642,-4.544,7.704,-0.003931,0.014118,0.00468
768,1711294295.6233802,19.175508975982666,-114.862,-21.959,149.657,-0.2356,-0.5688,-1.3959,-3.665,-4.546,7.748,0.019107,-0.013518,-0.003245
769,1711294295.6480536,19.20018243789673,-114.861,-21.962,149.66,-0.2338,-0.5718,-1.4001,-3.647,-4.467,7.734,0.001002,-0.001287,-0.000573
770,1711294295.6734905,19.225619316101074,-114.861,-21.962,149.665,-0.2356,-0.5708,-1.3992,-3.683,-4.514,7.824,-0.002472,0.00476,0.002447
771,1711294295.697709,19.24983787536621,-114.862,-21.959,149.65,-0.2336,-0.5619,-1.398,-3.585,-4.572,7.76,-0.010992,-0.002703,-0.001238
772,1711294295.7228456,19.27497434616089,-114.859,-21.957,149.642,-0.2346,-0.5639,-1.397,-3.611,-4.549,7.705,0.010474,0.003506,-0.001026
773,1711294295.748982,19.30111074447632,-114.859,-21.955,149.653,-0.2346,-0.5649,-1.397,-3.681,-4.503,7.814,0.006676,-0.00456,0.001051
774,1711294295.7728693,19.324998140335083,-114.862,-21.956,149.655,-0.2355,-0.5629,-1.396,-3.656,-4.568,7.865,-0.010888,0.003175,-0.000238
775,1711294295.7979033,19.350032091140747,-114.859,-21.955,149.646,-0.2346,-0.5668,-1.4002,-3.6,-4.559,7.738,-0.000403,-0.000738,0.001208
776,1711294295.8234324,19.375561237335205,-114.857,-21.956,149.651,-0.2338,-0.5698,-1.3947,-3.628,-4.533,7.788,0.007093,0.003027,0.004109
777,1711294295.8476827,19.399811506271362,-114.859,-21.961,149.66,-0.2328,-0.5699,-1.4001,-3.624,-4.552,7.868,0.000522,0.003464,0.004231
778,1711294295.8736577,19.42578649520874,-114.856,-21.962,149.651,-0.2375,-0.5687,-1.3971,-3.631,-4.573,7.759,-0.007982,-6e-06,-0.00209
779,1711294295.8979454,19.450074195861816,-114.855,-21.961,149.639,-0.2336,-0.5599,-1.3959,-3.606,-4.613,7.728,-0.004177,-0.003007,-0.00311
780,1711294295.9229558,19.47508454322815,-114.853,-21.959,149.642,-0.2355,-0.5648,-1.3959,-3.614,-4.567,7.782,0.005589,-0.002223,0.000411
781,1711294295.9480033,19.500132083892822,-114.854,-21.96,149.652,-0.2365,-0.5658,-1.3949,-3.626,-4.542,7.797,8.9e-05,0.001324,0.000166
782,1711294295.972679,19.524807691574097,-114.857,-21.957,149.652,-0.2346,-0.5629,-1.3981,-3.635,-4.536,7.814,-0.007013,-0.000716,-0.003378
783,1711294295.9978986,19.55002737045288,-114.857,-21.952,149.641,-0.2347,-0.5678,-1.3969,-3.567,-4.598,7.792,-0.008656,-0.000149,-0.001125
784,1711294296.0227206,19.574849367141724,-114.855,-21.945,149.627,-0.2356,-0.5678,-1.3937,-3.54,-4.659,7.748,0.007977,-0.007786,0.002166
785,1711294296.0480237,19.600152492523193,-114.853,-21.943,149.631,-0.2337,-0.5669,-1.3969,-3.602,-4.563,7.729,0.01154,-0.001873,0.001736
786,1711294296.0745068,19.626635551452637,-114.854,-21.938,149.645,-0.2356,-0.5688,-1.3959,-3.672,-4.495,7.833,0.006464,-0.000663,-0.001088
787,1711294296.0975888,19.649717569351196,-114.854,-21.936,149.639,-0.2356,-0.5688,-1.3937,-3.644,-4.527,7.784,-0.009272,-0.003164,-0.002909
788,1711294296.122464,19.67459273338318,-114.852,-21.933,149.624,-0.2356,-0.5658,-1.3937,-3.601,-4.581,7.738,-0.000821,0.00231,0.002795
789,1711294296.1477494,19.699878215789795,-114.852,-21.927,149.622,-0.2346,-0.5639,-1.3992,-3.572,-4.633,7.74,0.007311,-0.005318,-0.000399
790,1711294296.1727953,19.724924087524414,-114.851,-21.925,149.627,-0.2346,-0.5668,-1.4013,-3.63,-4.606,7.858,-0.007208,-0.016067,-0.007947
791,1711294296.1985402,19.75066900253296,-114.852,-21.929,149.635,-0.2356,-0.5698,-1.3948,-3.601,-4.523,7.826,-0.011422,0.008215,0.002408
792,1711294296.2230177,19.775146484375,-114.853,-21.93,149.637,-0.2374,-0.5638,-1.395,-3.633,-4.569,7.775,-0.003579,0.001616,0.000156
793,1711294296.2480364,19.8001651763916,-114.85,-21.932,149.631,-0.2356,-0.5668,-1.3948,-3.587,-4.594,7.823,-0.001502,-0.000375,0.000937
794,1711294296.2727964,19.824925184249878,-114.851,-21.935,149.624,-0.2346,-0.5639,-1.3959,-3.57,-4.625,7.74,-0.002002,0.001143,0.000138
795,1711294296.2976365,19.849765300750732,-114.849,-21.941,149.636,-0.2365,-0.5688,-1.397,-3.674,-4.535,7.75,0.011354,0.006961,0.002298
796,1711294296.324484,19.876612901687622,-114.851,-21.945,149.646,-0.2347,-0.5688,-1.398,-3.656,-4.547,7.816,0.000152,0.001629,0.002252
797,1711294296.3478055,19.8999342918396,-114.847,-21.952,149.643,-0.2356,-0.5708,-1.3937,-3.605,-4.535,7.764,0.008115,-0.004469,0.001798
798,1711294296.3726892,19.92481803894043,-114.849,-21.953,149.628,-0.2365,-0.5688,-1.3959,-3.561,-4.693,7.787,-0.02477,-0.003184,-0.001049
799,1711294296.397615,19.94974374771118,-114.849,-21.949,149.635,-0.2346,-0.5619,-1.397,-3.57,-4.645,7.798,-0.003205,0.010819,0.001356
800,1711294296.4237585,19.975887298583984,-114.878,-21.921,149.808,-0.2366,-0.5727,-1.3981,-3.504,-4.397,6.985,0.240517,-0.009712,-0.009659
801,1711294296.4480376,20.000166416168213,-114.861,-22.017,149.974,-0.2424,-0.5904,-1.4026,-3.834,-4.669,8.203,-0.000339,0.161513,0.027794
802,1711294296.4737089,20.025837659835815,-114.816,-22.02,149.893,-0.2415,-0.5914,-1.407,-3.728,-4.583,8.284,-0.088602,-0.048907,-0.036623
803,1711294296.4977489,20.049877643585205,-114.745,-22.001,149.687,-0.2375,-0.5747,-1.4058,-3.699,-4.769,7.787,-0.132722,0.0292,-0.070283
804,1711294296.5248332,20.076961994171143,-114.633,-21.954,149.474,-0.2254,-0.5671,-1.4062,-3.438,-4.168,7.392,-0.079886,0.005528,-0.048572
805,1711294296.5486069,20.100735664367676,-114.655,-21.965,149.47,-0.229,-0.561,-1.4043,-3.551,-4.723,7.324,0.074735,-0.015288,0.01555
806,1711294296.5737667,20.125895500183105,-114.718,-21.981,149.648,-0.2347,-0.5728,-1.4111,-3.71,-4.223,7.595,0.119242,-0.016534,0.085381
807,1711294296.597555,20.149683713912964,-114.819,-22.041,149.783,-0.2377,-0.5836,-1.4024,-3.893,-4.75,8.631,-0.048771,0.006116,0.049881
808,1711294296.623417,20.175545692443848,-114.815,-22.002,149.731,-0.2394,-0.5766,-1.4026,-3.64,-4.723,7.827,-0.068342,0.023311,-0.044888
809,1711294296.648008,20.20013689994812,-114.754,-21.998,149.591,-0.2319,-0.5719,-1.4033,-3.537,-4.498,7.521,-0.034073,-0.017945,-0.011978
810,1711294296.6740737,20.226202487945557,-114.764,-21.978,149.618,-0.2356,-0.5708,-1.4024,-3.497,-4.482,7.369,0.06685,-0.005729,0.011405
811,1711294296.699403,20.251531839370728,-114.8,-22.0,149.718,-0.2385,-0.5757,-1.4015,-3.72,-4.656,8.101,0.032833,0.008738,0.026956
812,1711294296.723417,20.275545835494995,-114.795,-21.996,149.696,-0.2366,-0.5727,-1.4047,-3.733,-4.58,7.933,-0.044212,0.002316,-0.016462
813,1711294296.7488437,20.30097246170044,-114.773,-21.981,149.628,-0.2366,-0.5737,-1.4058,-3.582,-4.462,7.484,-0.02065,-0.005131,-0.016051
814,1711294296.7739394,20.32606816291809,-114.779,-21.989,149.651,-0.2366,-0.5727,-1.4047,-3.638,-4.593,7.754,0.031366,4.3e-05,0.0148
815,1711294296.7988718,20.351000547409058,-114.791,-21.99,149.685,-0.2366,-0.5767,-1.4035,-3.694,-4.559,7.895,0.007797,-0.001417,-2.6e-05
816,1711294296.8243742,20.376502990722656,-114.786,-21.994,149.669,-0.2347,-0.5748,-1.4067,-3.646,-4.548,7.792,-0.014698,0.001223,-0.001896
817,1711294296.84819,20.40031886100769,-114.783,-21.996,149.66,-0.2338,-0.5728,-1.4034,-3.633,-4.527,7.701,0.004476,0.002429,-0.000342
818,1711294296.87373,20.425858736038208,-114.786,-22.0,149.675,-0.2366,-0.5777,-1.4068,-3.658,-4.56,7.814,0.008973,0.004478,0.006159
819,1711294296.8988006,20.450929403305054,-114.785,-21.998,149.671,-0.2385,-0.5756,-1.407,-3.573,-4.602,7.784,-0.007728,-0.010737,-0.009592
820,1711294296.9246879,20.476816654205322,-114.781,-22.0,149.663,-0.2357,-0.5747,-1.4024,-3.581,-4.537,7.719,-0.006143,-0.001644,-0.002647
821,1711294296.9481535,20.500282287597656,-114.784,-22.004,149.676,-0.2356,-0.5727,-1.409,-3.67,-4.504,7.75,0.007769,0.003155,0.004532
822,1711294296.972949,20.52507781982422,-114.787,-22.007,149.682,-0.2375,-0.5727,-1.4058,-3.671,-4.554,7.801,-0.001034,0.000124,0.000337
823,1711294296.9986837,20.550812482833862,-114.786,-22.007,149.674,-0.2348,-0.5757,-1.4045,-3.618,-4.564,7.766,-0.002329,-0.000931,-0.000662
824,1711294297.0236864,20.575815200805664,-114.786,-22.009,149.676,-0.2375,-0.5727,-1.4047,-3.582,-4.55,7.735,0.006606,0.000336,0.000174
825,1711294297.0487146,20.60084342956543,-114.787,-22.011,149.686,-0.2365,-0.5688,-1.4069,-3.654,-4.513,7.806,0.006162,0.002609,0.001757
826,1711294297.073354,20.62548279762268,-114.788,-22.015,149.687,-0.2366,-0.5767,-1.4046,-3.678,-4.568,7.801,-0.003891,0.001198,0.000214
827,1711294297.0980983,20.650227069854736,-114.785,-22.015,149.681,-0.2339,-0.5777,-1.4066,-3.634,-4.532,7.736,-0.000912,0.000535,-0.001259
828,1711294297.122847,20.674975872039795,-114.784,-22.016,149.685,-0.2347,-0.5738,-1.4133,-3.618,-4.559,7.792,0.004116,0.000795,-8.1e-05
829,1711294297.1485977,20.70072650909424,-114.785,-22.017,149.688,-0.2338,-0.5728,-1.4045,-3.636,-4.584,7.774,0.001997,-0.00104,0.000441
830,1711294297.1741557,20.726284503936768,-114.784,-22.019,149.691,-0.2357,-0.5747,-1.4079,-3.661,-4.512,7.769,0.002642,-0.000278,-4e-05
831,1711294297.1990037,20.751132488250732,-114.785,-22.018,149.696,-0.2357,-0.5737,-1.409,-3.688,-4.498,7.788,0.003316,0.00157,0.000508
832,1711294297.2245338,20.776662588119507,-114.787,-22.02,149.691,-0.2339,-0.5787,-1.4077,-3.665,-4.596,7.841,-0.006833,0.000981,0.00073
833,1711294297.2486145,20.800743341445923,-114.783,-22.017,149.683,-0.2356,-0.5727,-1.4035,-3.596,-4.573,7.701,0.001988,-0.000186,-0.002181
834,1711294297.2732835,20.825412273406982,-114.784,-22.018,149.697,-0.2329,-0.5778,-1.4055,-3.641,-4.534,7.78,0.013154,-0.00236,0.002503
835,1711294297.2978218,20.849950551986694,-114.79,-22.02,149.711,-0.2366,-0.5747,-1.4058,-3.673,-4.509,7.841,-1.2e-05,0.001413,0.004873
836,1711294297.32279,20.874918699264526,-114.789,-22.018,149.697,-0.2357,-0.5757,-1.4101,-3.639,-4.574,7.77,-0.01035,-0.000466,-0.005199
837,1711294297.3476954,20.899824142456055,-114.788,-22.017,149.687,-0.2366,-0.5747,-1.4047,-3.614,-4.568,7.713,0.000242,-0.000116,-0.000501
838,1711294297.3726168,20.924745559692383,-114.789,-22.016,149.701,-0.2356,-0.5718,-1.4057,-3.622,-4.557,7.773,0.011966,-0.00014,0.001126
839,1711294297.397657,20.949785709381104,-114.795,-22.019,149.708,-0.2357,-0.5747,-1.4057,-3.675,-4.548,7.844,-0.00185,0.00018,0.001777
840,1711294297.4226089,20.974737644195557,-114.793,-22.02,149.701,-0.2357,-0.5757,-1.4101,-3.686,-4.517,7.762,-0.00684,0.003747,0.001803
841,1711294297.4476488,20.9997775554657,-114.793,-22.017,149.695,-0.2329,-0.5758,-1.4055,-3.607,-4.592,7.736,-0.000239,-0.000861,-0.001997
842,1711294297.4726098,21.024738550186157,-114.794,-22.012,149.699,-0.2356,-0.5727,-1.409,-3.609,-4.578,7.79,0.002256,-0.00415,-7.4e-05
843,1711294297.4976304,21.04975914955139,-114.793,-22.004,149.699,-0.2357,-0.5737,-1.4057,-3.597,-4.764,7.957,-0.020136,0.014106,0.000732
844,1711294297.522617,21.074745893478394,-114.797,-22.008,149.703,-0.2348,-0.5767,-1.41,-3.731,-4.488,7.764,0.008109,-0.000781,-0.000541
845,1711294297.5476086,21.099737405776978,-114.794,-22.011,149.704,-0.2357,-0.5757,-1.4079,-3.602,-4.483,7.802,-0.002564,0.001182,-0.003431
846,1711294297.5725756,21.124704360961914,-114.795,-22.014,149.699,-0.2348,-0.5767,-1.4111,-3.683,-4.561,7.775,-0.010615,0.003524,0.000573
847,1711294297.5984979,21.15062665939331,-114.797,-22.016,149.692,-0.2329,-0.5768,-1.4055,-3.675,-4.579,7.708,-0.004641,0.000318,0.000141
848,1711294297.6228683,21.174997091293335,-114.798,-22.02,149.698,-0.2366,-0.5757,-1.4101,-3.532,-4.579,7.81,0.030737,-0.000773,0.008872
849,1711294297.6475825,21.199711322784424,-114.801,-22.015,149.709,-0.2347,-0.5708,-1.4079,-3.605,-4.517,7.805,0.002693,0.013036,0.007775
850,1711294297.6725416,21.22467041015625,-114.806,-22.019,149.715,-0.2366,-0.5767,-1.4123,-3.619,-4.621,7.871,-0.002895,0.004034,0.007135
851,1711294297.698329,21.250457763671875,-114.801,-22.014,149.703,-0.2338,-0.5738,-1.4067,-3.521,-4.601,7.679,0.018221,0.001553,0.000489
852,1711294297.7231603,21.275289058685303,-114.801,-22.016,149.701,-0.2356,-0.5718,-1.4068,-3.638,-4.577,7.764,0.013473,-0.004691,-0.002661
853,1711294297.7476459,21.299774646759033,-114.801,-22.01,149.709,-0.2357,-0.5757,-1.409,-3.611,-4.538,7.774,-0.000171,0.003389,-0.001066
854,1711294297.7726238,21.32475256919861,-114.803,-22.011,149.709,-0.2347,-0.5738,-1.4133,-3.644,-4.55,7.811,-0.006237,0.001383,0.001124
855,1711294297.7975833,21.349712133407593,-114.804,-22.009,149.703,-0.2347,-0.5738,-1.4089,-3.677,-4.552,7.738,0.000569,0.000891,0.000992
856,1711294297.8231857,21.375314474105835,-114.801,-22.005,149.703,-0.2337,-0.5678,-1.41,-3.739,-4.562,7.793,-0.019954,-0.000935,-0.009167
857,1711294297.848099,21.400227785110474,-114.803,-22.005,149.706,-0.2347,-0.5738,-1.4089,-3.561,-4.615,7.855,-0.004445,-0.008389,-0.00491
858,1711294297.8727403,21.424869060516357,-114.8,-22.007,149.698,-0.2348,-0.5767,-1.4133,-3.6,-4.545,7.759,-0.008269,0.003509,-0.003106
859,1711294297.8993068,21.451435565948486,-114.801,-22.008,149.706,-0.2338,-0.5728,-1.4133,-3.704,-4.505,7.728,0.0087,-0.000273,0.000956
860,1711294297.9224308,21.474559545516968,-114.802,-22.012,149.712,-0.2338,-0.5748,-1.4089,-3.703,-4.521,7.842,-0.003058,0.000322,0.001386
861,1711294297.9475431,21.499671936035156,-114.797,-22.014,149.699,-0.2337,-0.5698,-1.4078,-3.612,-4.615,7.783,-0.010898,0.012419,0.006128
862,1711294297.9725363,21.524665117263794,-114.795,-22.008,149.695,-0.2366,-0.5747,-1.4112,-3.625,-4.556,7.705,0.010861,0.002857,0.003758
863,1711294297.9980931,21.550221920013428,-114.811,-22.007,149.727,-0.2347,-0.5738,-1.4111,-3.474,-4.476,7.694,0.036361,0.000394,0.032277
864,1711294298.0223796,21.57450842857361,-114.845,-22.016,149.819,-0.2349,-0.5817,-1.4089,-3.723,-4.554,7.851,0.039479,0.026094,0.01617
865,1711294298.0479467,21.600075483322144,-114.813,-22.021,149.772,-0.2348,-0.5767,-1.41,-3.868,-4.463,8.021,-0.069743,-0.019985,-0.041621
866,1711294298.072717,21.62484574317932,-114.786,-22.005,149.685,-0.2347,-0.5747,-1.4089,-3.566,-4.525,7.426,-0.02137,-0.012526,-0.026302
867,1711294298.09821,21.650338888168335,-114.785,-22.015,149.706,-0.2338,-0.5748,-1.4078,-3.636,-4.558,7.739,0.025315,0.018533,0.017307
868,1711294298.1235487,21.67567753791809,-114.829,-22.015,149.794,-0.2366,-0.5747,-1.4101,-3.743,-4.388,7.626,0.064076,-0.038994,0.03171
869,1711294298.1491094,21.70123815536499,-114.864,-22.034,149.869,-0.2396,-0.5865,-1.4091,-3.926,-4.603,8.02,0.013603,0.016812,0.001469
870,1711294298.173822,21.725950717926025,-114.804,-22.031,149.735,-0.2349,-0.5827,-1.4099,-3.633,-4.701,8.068,-0.139328,0.019033,-0.045184
