seq,stamp,elapsed_time,yaw,pitch,roll,mag_x,mag_y,mag_z,accel_x,accel_y,accel_z,gyro_x,gyro_y,gyro_z
88,1710361885.126824,0,134.801,86.553,106.642,0.177,-0.0681,0.2589,0.957,0.639,-10.125,0.044654,-0.069487,-0.184477
89,1710361885.151787,0.0249631404876709,136.019,86.811,107.923,0.1742,-0.0661,0.2686,1.227,0.185,-9.728,0.035219,0.022594,-0.197138
90,1710361885.176846,0.050022125244140625,139.219,87.127,111.142,0.1752,-0.0651,0.2697,1.085,0.178,-8.867,0.008581,0.039242,-0.277506
91,1710361885.2017696,0.07494568824768066,142.712,87.539,114.618,0.1779,-0.0692,0.2699,0.619,0.808,-8.769,-0.021123,-0.034197,-0.30296
92,1710361885.226799,0.0999751091003418,145.335,87.92,117.222,0.177,-0.0652,0.2687,0.457,0.545,-9.148,-0.00055,-0.054094,-0.251663
93,1710361885.2517562,0.12493228912353516,148.703,88.252,120.626,0.1761,-0.0632,0.2676,0.329,0.539,-9.331,0.042014,-0.040117,-0.231684
94,1710361885.2775798,0.1507558822631836,151.32,88.561,123.309,0.1779,-0.0662,0.2688,0.388,0.555,-9.393,0.046064,-0.091033,-0.194801
95,1710361885.3019745,0.17515063285827637,151.204,88.857,123.257,0.177,-0.0632,0.2698,0.545,0.689,-9.568,0.042152,-0.115275,-0.150824
96,1710361885.3286922,0.20186829566955566,146.166,89.11,118.27,0.1771,-0.0602,0.2654,0.825,0.826,-9.656,0.027185,-0.153312,-0.095461
97,1710361885.3516529,0.22482895851135254,132.124,89.321,104.221,0.179,-0.0583,0.2677,1.279,0.682,-10.072,-0.013299,-0.164001,-0.082884
98,1710361885.377941,0.2511169910430908,117.97,89.458,90.056,0.1807,-0.0643,0.2679,1.319,0.706,-10.135,0.004756,-0.10517,-0.077398
99,1710361885.4017608,0.2749369144439697,103.165,89.558,75.255,0.1799,-0.0553,0.2644,1.122,0.636,-10.433,0.001217,-0.060294,-0.087042
100,1710361885.4275737,0.3007497787475586,79.434,89.679,51.511,0.1807,-0.0633,0.2646,0.738,0.746,-10.652,-0.025946,-0.061501,-0.140631
101,1710361885.4519079,0.32508397102355957,45.306,89.711,17.316,0.1798,-0.0613,0.2656,0.431,1.39,-10.646,-0.058181,-0.041288,-0.067319
102,1710361885.4774797,0.35065579414367676,48.227,89.659,20.187,0.1779,-0.0642,0.2666,0.629,0.897,-10.692,-0.00481,-0.004661,0.08004
103,1710361885.504261,0.37743711471557617,70.481,89.539,42.493,0.1798,-0.0672,0.2667,1.03,0.388,-10.872,0.057948,-0.013578,0.165137
104,1710361885.5275016,0.4006776809692383,87.984,89.375,60.133,0.1816,-0.0663,0.2647,1.252,-0.221,-10.944,0.121133,0.046063,0.146449
105,1710361885.5518892,0.425065279006958,94.655,89.264,66.969,0.1779,-0.0691,0.2612,1.207,-0.155,-11.02,0.108757,0.009743,0.061699
106,1710361885.5782948,0.45147085189819336,98.461,89.235,70.921,0.1788,-0.0682,0.2623,0.724,0.268,-10.977,0.100431,0.039427,0.016465
107,1710361885.6024048,0.47558093070983887,103.998,89.221,76.587,0.1761,-0.0671,0.2654,-0.105,0.75,-10.531,0.083728,0.032889,0.029182
108,1710361885.6274824,0.5006585121154785,107.635,89.177,80.352,0.1772,-0.0563,0.2621,-0.481,0.821,-10.428,0.097371,0.037769,0.036114
109,1710361885.6526222,0.5257983207702637,110.289,89.155,83.124,0.1751,-0.0701,0.2676,-0.611,0.982,-10.317,0.069627,0.022149,0.006267
110,1710361885.6773984,0.550574541091919,112.754,89.183,85.638,0.177,-0.0652,0.2643,-0.838,1.555,-10.266,0.004,0.033095,-0.014522
111,1710361885.7026296,0.5758056640625,116.255,89.197,89.057,0.1742,-0.0681,0.2642,-0.92,1.509,-9.8,-0.09719,0.043312,-0.003229
112,1710361885.7273812,0.6005573272705078,119.095,89.216,91.687,0.1724,-0.067,0.263,-0.867,1.296,-9.196,-0.175531,0.013592,-0.0248
113,1710361885.7526598,0.6258358955383301,116.309,89.246,88.63,0.1751,-0.0711,0.2676,-0.891,1.447,-8.88,-0.177223,-0.040987,-0.00601
114,1710361885.7773695,0.650545597076416,111.823,89.22,83.955,0.1732,-0.075,0.2609,-0.964,0.904,-9.24,-0.099774,-0.02882,0.022519
115,1710361885.8027349,0.6759109497070312,104.214,89.198,76.26,0.1741,-0.075,0.2632,-1.129,0.666,-9.629,-0.040959,-0.104244,-0.004084
116,1710361885.8272974,0.7004735469818115,96.43,89.129,68.45,0.1742,-0.0671,0.2598,-0.734,0.526,-10.604,-0.007612,-0.052082,0.043683
117,1710361885.8524346,0.7256107330322266,98.163,89.062,70.156,0.1722,-0.0759,0.2609,-0.296,-0.202,-10.004,-0.035935,0.023567,0.055504
118,1710361885.877314,0.7504901885986328,100.506,89.05,72.438,0.1722,-0.0799,0.2653,0.25,-1.332,-9.33,-0.048212,0.01752,-0.037492
119,1710361885.902231,0.775407075881958,90.163,89.267,61.967,0.1723,-0.068,0.2608,0.377,-1.284,-8.947,-0.119766,-0.07466,-0.279939
120,1710361885.9272356,0.8004117012023926,45.662,89.511,17.317,0.1732,-0.075,0.2576,0.272,-0.315,-8.701,-0.084171,-0.08462,-0.369162
121,1710361885.9523242,0.8255002498626709,-6.045,89.28,-34.46,0.1749,-0.08,0.2633,0.615,-0.312,-8.772,-0.032156,-0.096343,-0.409166
122,1710361885.9772322,0.8504083156585693,-26.769,88.652,-55.203,0.1787,-0.0791,0.2591,0.88,0.04,-8.863,-0.00945,-0.137828,-0.544704
123,1710361886.00276,0.8759360313415527,-34.706,87.834,-63.139,0.1787,-0.0771,0.2613,0.964,0.579,-9.17,-0.00174,-0.147984,-0.602306
124,1710361886.0271928,0.9003689289093018,-38.523,86.92,-66.974,0.1806,-0.0712,0.2559,0.967,1.306,-9.648,-0.0279,-0.152837,-0.638785
125,1710361886.0523095,0.9254856109619141,-41.355,86.059,-69.807,0.1807,-0.0672,0.2569,0.897,2.074,-10.107,0.026972,-0.052001,-0.559595
126,1710361886.0771313,0.9503073692321777,-44.862,85.424,-73.185,0.1816,-0.0682,0.2559,0.952,1.745,-10.025,0.105487,0.074445,-0.441599
127,1710361886.1020164,0.9751925468444824,-48.066,84.842,-76.242,0.1816,-0.0673,0.2592,0.781,1.627,-10.076,0.083814,0.081356,-0.444139
128,1710361886.1270528,1.0002288818359375,-50.556,84.264,-78.62,0.1798,-0.0633,0.2634,0.46,1.721,-9.968,0.059729,0.060837,-0.419385
129,1710361886.1522849,1.025460958480835,-52.384,83.715,-80.402,0.179,-0.0603,0.2523,0.439,1.796,-10.413,0.000686,0.077108,-0.382359
130,1710361886.1770215,1.0501976013183594,-54.306,83.236,-82.353,0.179,-0.0593,0.2479,0.559,1.238,-10.049,-0.041991,0.109553,-0.344421
131,1710361886.202198,1.0753741264343262,-55.621,82.736,-83.705,0.1781,-0.0573,0.2599,0.393,1.007,-9.913,-0.018204,0.042772,-0.372353
132,1710361886.227013,1.100189208984375,-56.055,82.23,-84.099,0.1772,-0.0572,0.2511,0.102,1.395,-10.706,0.05348,-0.018381,-0.32406
133,1710361886.2522027,1.1253788471221924,-56.316,81.836,-84.213,0.1753,-0.0562,0.2564,0.58,0.779,-11.654,0.134512,0.041328,-0.248898
134,1710361886.2771776,1.1503536701202393,-57.105,81.486,-84.797,0.1745,-0.0502,0.2563,0.631,0.26,-11.221,0.123679,0.050635,-0.267211
135,1710361886.3022904,1.175466537475586,-57.368,81.03,-84.897,0.1754,-0.0503,0.2597,0.192,0.246,-11.046,0.121035,-0.030894,-0.351327
136,1710361886.3272567,1.2004327774047852,-57.377,80.475,-84.66,0.1754,-0.0473,0.2607,-0.276,0.543,-11.373,0.20009,-0.030799,-0.403699
137,1710361886.3522146,1.2253906726837158,-57.615,79.929,-84.62,0.1774,-0.0434,0.2509,-0.589,1.707,-11.375,0.172456,0.014231,-0.34272
138,1710361886.3769543,1.2501304149627686,-58.466,79.585,-85.234,0.1746,-0.0443,0.2585,-0.543,1.596,-10.765,0.146362,0.145573,-0.191059
139,1710361886.401891,1.2750670909881592,-59.747,79.354,-86.339,0.1746,-0.0433,0.2519,-0.41,0.667,-9.127,0.066803,0.124779,-0.188581
140,1710361886.4269307,1.3001067638397217,-59.856,78.986,-86.534,0.1755,-0.0424,0.2618,-0.627,0.711,-8.72,-0.140631,-0.07591,-0.292849
141,1710361886.4518523,1.325028419494629,-59.384,78.58,-86.255,0.1746,-0.0433,0.2584,-0.868,0.893,-9.391,-0.103328,-0.067056,-0.247996
142,1710361886.4772434,1.350419521331787,-59.065,78.292,-86.063,0.1764,-0.0434,0.2608,-0.624,0.568,-9.582,-0.077132,-0.049035,-0.169523
143,1710361886.502115,1.375291109085083,-58.577,78.084,-85.694,0.1766,-0.0354,0.2541,-0.37,0.081,-9.577,-0.0762,-0.108424,-0.118908
144,1710361886.5276423,1.4008183479309082,-57.649,77.838,-84.88,0.1783,-0.0434,0.2609,0.129,-0.969,-10.207,-0.061214,-0.171846,-0.223285
145,1710361886.5520177,1.4251937866210938,-56.67,77.369,-84.045,0.1783,-0.0454,0.2565,0.101,0.437,-10.562,-0.101786,-0.170914,-0.329855
146,1710361886.5768113,1.4499874114990234,-56.012,76.961,-83.572,0.1794,-0.0355,0.251,0.458,1.231,-9.938,-0.138287,-0.111567,-0.223963
147,1710361886.6019552,1.4751312732696533,-55.755,76.735,-83.545,0.1783,-0.0404,0.2543,1.113,1.252,-9.639,-0.150063,0.00038,-0.093553
148,1710361886.628829,1.5020051002502441,-55.956,76.629,-83.931,0.1801,-0.0474,0.2479,1.596,0.461,-8.735,-0.133006,0.025586,-0.092135
149,1710361886.6517727,1.5249488353729248,-56.263,76.487,-84.388,0.1801,-0.0435,0.2577,1.298,0.812,-8.857,-0.078979,0.065893,-0.091989
150,1710361886.678842,1.552018165588379,-56.624,76.361,-84.826,0.1801,-0.0464,0.2457,1.013,0.588,-8.891,-0.063477,0.035458,-0.100441
151,1710361886.7017033,1.5748794078826904,-56.951,76.213,-85.212,0.1792,-0.0474,0.2555,0.598,0.39,-8.979,-0.041978,0.045833,-0.105978
152,1710361886.7275584,1.6007344722747803,-57.077,76.073,-85.409,0.1754,-0.0483,0.2542,0.4,0.709,-9.484,-0.049621,0.017497,-0.067507
153,1710361886.7519736,1.6251497268676758,-57.296,76.057,-85.674,0.1755,-0.0463,0.2541,0.67,0.229,-9.591,-0.030924,0.040964,-0.000673
154,1710361886.777562,1.650738000869751,-57.595,76.047,-86.022,0.1763,-0.0513,0.2554,1.008,0.041,-9.614,-0.040188,0.056784,-0.01486
155,1710361886.8020988,1.6752748489379883,-57.836,75.956,-86.325,0.1744,-0.0522,0.2596,1.074,0.219,-9.578,-0.062536,0.027099,-0.090656
156,1710361886.8276803,1.7008564472198486,-57.928,75.784,-86.487,0.1737,-0.0413,0.2518,0.964,0.561,-10.777,-0.047233,0.041157,-0.131158
157,1710361886.852749,1.7259252071380615,-58.466,75.611,-87.085,0.1735,-0.0552,0.2596,0.397,0.921,-10.822,-0.079139,0.102078,-0.134731
158,1710361886.8779178,1.751093864440918,-59.001,75.459,-87.79,0.1716,-0.0571,0.254,0.17,1.941,-10.345,-0.158814,0.076404,-0.070042
159,1710361886.9024353,1.775611400604248,-59.421,75.525,-88.401,0.1708,-0.0511,0.2572,0.375,1.797,-10.079,-0.113147,0.073028,0.123164
160,1710361886.9282734,1.8014495372772217,-59.583,75.783,-88.697,0.1706,-0.0601,0.2551,0.816,0.941,-10.577,-0.099996,0.006766,0.185911
161,1710361886.952754,1.825930118560791,-59.456,75.964,-88.659,0.1697,-0.06,0.2583,0.968,0.353,-11.448,-0.036169,-0.02657,0.069495
162,1710361886.9774702,1.8506462574005127,-59.586,75.986,-88.83,0.1707,-0.0561,0.2551,0.67,0.878,-12.481,-0.035165,0.096205,0.005522
163,1710361887.0025659,1.875741958618164,-60.534,76.05,-89.816,0.1669,-0.0649,0.2538,0.065,0.827,-11.811,-0.050736,0.190878,0.072626
164,1710361887.0274892,1.900665283203125,-61.666,76.117,-90.947,0.1641,-0.0619,0.258,-0.469,0.215,-10.517,0.002568,0.153412,0.011589
165,1710361887.052859,1.9260351657867432,-61.965,75.94,-91.221,0.165,-0.0629,0.2592,-0.498,0.744,-10.259,0.001103,-0.012409,-0.219145
166,1710361887.077444,1.950620174407959,-61.689,75.596,-90.985,0.166,-0.0619,0.2482,-0.772,2.56,-9.866,-0.032866,-0.044718,-0.207105
167,1710361887.1026878,1.9758639335632324,-61.597,75.456,-90.901,0.166,-0.0599,0.2592,-0.538,2.317,-9.378,0.025416,0.0117,-0.027112
168,1710361887.1274323,2.000608444213867,-61.516,75.41,-90.781,0.1624,-0.0559,0.2567,-0.347,1.213,-8.614,0.014686,-0.066655,-0.067325
169,1710361887.1523101,2.0254862308502197,-60.672,75.24,-89.956,0.1669,-0.06,0.2571,-0.577,1.672,-9.251,0.014685,-0.188695,-0.136843
170,1710361887.1773849,2.05056095123291,-59.544,75.087,-88.802,0.1678,-0.062,0.2549,-0.666,2.117,-9.832,0.050892,-0.203134,-0.069207
171,1710361887.202611,2.07578706741333,-58.919,75.106,-88.14,0.1679,-0.058,0.2593,-0.505,2.151,-9.776,0.019601,-0.055995,0.083023
172,1710361887.2273524,2.1005284786224365,-58.665,75.301,-87.925,0.1678,-0.0659,0.2561,0.031,0.719,-8.609,-0.040024,-0.046189,0.140942
173,1710361887.252262,2.1254382133483887,-58.191,75.392,-87.551,0.1705,-0.069,0.2541,0.639,0.079,-8.384,-0.063513,-0.099112,0.014441
174,1710361887.2773185,2.1504945755004883,-57.572,75.303,-86.994,0.1705,-0.07,0.2508,0.691,-0.023,-8.38,-0.00402,-0.114905,-0.095594
175,1710361887.302579,2.175755023956299,-56.831,75.085,-86.265,0.1697,-0.064,0.2529,0.693,0.601,-8.685,0.003641,-0.158899,-0.166411
176,1710361887.3272712,2.2004473209381104,-56.155,74.814,-85.582,0.1715,-0.063,0.2519,0.982,0.869,-9.008,0.03379,-0.105922,-0.178698
177,1710361887.3525589,2.2257349491119385,-55.719,74.542,-85.088,0.1725,-0.0601,0.2519,1.261,0.685,-8.707,0.068085,-0.098441,-0.188089
178,1710361887.3772612,2.2504372596740723,-55.205,74.185,-84.453,0.1753,-0.0552,0.2488,1.273,0.932,-8.992,0.099522,-0.132875,-0.272744
179,1710361887.4021444,2.275320529937744,-54.686,73.723,-83.84,0.1744,-0.0591,0.2487,0.953,1.404,-9.583,0.070724,-0.120228,-0.319963
180,1710361887.427176,2.300352096557617,-54.397,73.306,-83.436,0.1753,-0.0592,0.251,0.808,1.541,-10.19,0.10479,-0.060434,-0.249527
181,1710361887.4521058,2.325281858444214,-54.289,73.007,-83.179,0.1753,-0.0582,0.2477,0.428,1.456,-10.318,0.091679,-0.047333,-0.18595
182,1710361887.4771118,2.350287914276123,-54.134,72.711,-82.943,0.1762,-0.0572,0.2466,0.583,1.104,-10.819,0.051887,-0.045519,-0.218265
183,1710361887.504344,2.3775200843811035,-54.154,72.319,-82.929,0.1753,-0.0592,0.2521,1.186,0.595,-10.863,0.002823,-0.017634,-0.316858
184,1710361887.5271292,2.4003052711486816,-54.265,71.782,-83.07,0.1754,-0.0522,0.2476,0.96,1.411,-10.591,-0.066318,-0.043705,-0.387964
185,1710361887.5523987,2.425574779510498,-54.12,71.252,-83.025,0.1772,-0.0553,0.2445,0.564,1.286,-10.684,-0.024626,-0.097064,-0.34509
186,1710361887.5770838,2.4502599239349365,-53.87,70.864,-82.711,0.1764,-0.0473,0.2487,1.102,2.303,-12.201,0.114312,-0.033903,-0.182195
187,1710361887.6019745,2.4751505851745605,-54.264,70.794,-82.822,0.1745,-0.0492,0.2475,1.446,1.381,-12.222,0.201954,0.154715,-0.007058
188,1710361887.627079,2.5002551078796387,-55.121,70.759,-83.354,0.1754,-0.0503,0.2498,1.126,0.073,-11.412,0.190471,0.2066,-0.10968
189,1710361887.651964,2.5251400470733643,-56.057,70.406,-83.995,0.168,-0.0511,0.2515,-0.446,0.612,-11.188,0.129684,0.16945,-0.3577
190,1710361887.6770256,2.550201654434204,-56.847,69.907,-84.639,0.1718,-0.0462,0.2572,-1.624,1.835,-11.239,0.039924,0.164651,-0.332873
191,1710361887.7019205,2.575096607208252,-57.652,69.584,-85.406,0.1689,-0.0501,0.2527,-1.877,1.967,-10.516,-0.032126,0.184363,-0.169687
192,1710361887.7280662,2.6012423038482666,-58.533,69.566,-86.27,0.1681,-0.0451,0.2537,-1.207,1.316,-9.722,-0.031924,0.234176,0.063032
193,1710361887.7522335,2.6254096031188965,-59.448,69.778,-87.151,0.1635,-0.044,0.2534,0.171,-0.509,-7.975,0.001227,0.182145,0.125283
194,1710361887.7779567,2.651132822036743,-59.526,69.767,-87.221,0.1644,-0.0431,0.2556,0.818,-0.96,-8.676,-0.009423,-0.064932,-0.091928
195,1710361887.8018842,2.675060272216797,-59.077,69.409,-86.826,0.168,-0.0481,0.257,0.669,-0.121,-9.479,-0.018519,-0.138383,-0.337356
196,1710361887.8269136,2.700089693069458,-58.602,68.866,-86.454,0.1655,-0.0342,0.2534,0.048,1.668,-10.007,-0.075051,-0.120194,-0.348596
197,1710361887.8521454,2.7253215312957764,-58.534,68.439,-86.484,0.1653,-0.0461,0.2535,-0.088,1.836,-9.495,-0.06922,0.013359,-0.256987
198,1710361887.8777916,2.7509677410125732,-58.598,68.192,-86.684,0.1671,-0.0481,0.2438,-0.195,2.352,-8.953,-0.108435,0.013262,-0.094168
199,1710361887.9018366,2.775012731552124,-58.748,68.208,-86.894,0.1644,-0.0431,0.2556,0.349,1.047,-8.433,-0.015828,0.045814,0.050004
200,1710361887.926824,2.8000001907348633,-58.85,68.262,-87.03,0.1653,-0.047,0.2469,0.933,0.139,-8.48,-0.039823,0.02236,0.013403
201,1710361887.951904,2.825080156326294,-58.913,68.171,-87.178,0.1663,-0.0411,0.248,1.174,-0.441,-8.148,-0.075458,-0.008611,-0.12984
202,1710361887.9778302,2.851006269454956,-58.713,67.845,-87.111,0.1671,-0.0501,0.2548,0.975,0.063,-8.372,-0.070699,-0.087261,-0.267023
203,1710361888.0017834,2.8749594688415527,-58.411,67.562,-86.863,0.1662,-0.0481,0.2492,0.851,1.023,-9.308,-0.000681,-0.076704,-0.113414
204,1710361888.0276065,2.900782585144043,-58.083,67.464,-86.554,0.1662,-0.05,0.2481,1.441,0.094,-10.249,0.000247,-0.085532,-0.058309
205,1710361888.0518005,2.9249765872955322,-58.019,67.324,-86.438,0.1689,-0.0501,0.2527,1.801,-0.01,-10.402,0.065134,0.005175,-0.11309
206,1710361888.0775883,2.9507644176483154,-58.191,67.159,-86.48,0.1662,-0.0461,0.2536,1.617,0.243,-11.044,0.078464,0.075599,-0.113532
207,1710361888.102827,2.9760031700134277,-58.607,66.966,-86.789,0.1661,-0.053,0.2536,1.097,0.244,-10.666,0.029927,0.109969,-0.173699
208,1710361888.1275165,3.00069260597229,-59.044,66.663,-87.16,0.1635,-0.0411,0.2522,0.328,1.247,-10.392,0.021087,0.113368,-0.222922
209,1710361888.1519468,3.025122880935669,-59.354,66.409,-87.419,0.1635,-0.045,0.2468,0.113,1.895,-10.251,0.010224,0.055635,-0.124618
210,1710361888.177801,3.0509769916534424,-59.465,66.391,-87.501,0.1644,-0.047,0.2534,0.509,1.2,-10.454,0.019133,0.015539,0.041095
211,1710361888.2029245,3.0761005878448486,-59.38,66.395,-87.371,0.1628,-0.0311,0.2499,0.79,0.436,-10.868,0.04522,-0.044904,-0.048803
212,1710361888.2292395,3.1024155616760254,-59.063,66.161,-87.025,0.1644,-0.045,0.2556,0.476,0.785,-11.746,0.02564,-0.114893,-0.21872
213,1710361888.252842,3.1260180473327637,-58.875,65.801,-86.794,0.1653,-0.0461,0.2535,-0.373,0.947,-12.145,0.050691,-0.026016,-0.255224
214,1710361888.2775302,3.1507062911987305,-58.96,65.42,-86.805,0.1635,-0.045,0.2446,-1.324,1.33,-11.358,0.040078,0.022226,-0.260629
215,1710361888.3028681,3.176044225692749,-59.024,65.172,-86.804,0.1653,-0.0451,0.2557,-1.694,2.115,-10.643,0.047467,0.012304,-0.094896
216,1710361888.3275044,3.2006804943084717,-59.034,65.174,-86.714,0.1634,-0.047,0.2523,-0.873,1.416,-9.556,0.06092,-0.013875,0.037447
217,1710361888.3527417,3.2259178161621094,-58.854,65.125,-86.512,0.1644,-0.0441,0.2545,0.137,0.111,-8.986,0.021489,-0.074521,-0.103152
218,1710361888.377511,3.2506871223449707,-58.396,64.738,-86.083,0.1654,-0.0431,0.2502,-0.105,0.315,-8.52,-0.009536,-0.212071,-0.360504
219,1710361888.4027898,3.275965929031372,-57.434,64.087,-85.267,0.1672,-0.0411,0.2503,-0.867,2.187,-9.425,-0.026829,-0.363249,-0.428818
220,1710361888.4274852,3.300661325454712,-56.56,63.706,-84.399,0.1718,-0.0442,0.2506,-0.737,3.753,-10.709,0.109596,-0.207379,-0.06959
221,1710361888.4527624,3.3259384632110596,-56.194,63.89,-83.901,0.17,-0.0432,0.2373,0.25,2.231,-9.936,0.093862,-0.050267,0.220672
222,1710361888.4774094,3.350585460662842,-56.057,64.198,-83.681,0.1702,-0.0303,0.2437,1.177,0.614,-9.116,0.05485,0.003728,0.192587
223,1710361888.5067453,3.3799214363098145,-56.026,64.333,-83.629,0.1709,-0.0442,0.2494,1.617,-0.234,-8.317,-0.011496,-0.009381,0.018612
224,1710361888.527423,3.4005990028381348,-55.972,64.204,-83.628,0.17,-0.0452,0.2483,1.431,0.222,-8.221,-0.028092,-0.011868,-0.134933
225,1710361888.5532725,3.4264485836029053,-56.027,63.971,-83.672,0.1709,-0.0452,0.2527,1.015,0.679,-8.157,0.011475,-0.009811,-0.168411
226,1710361888.5773563,3.4505324363708496,-55.991,63.726,-83.63,0.171,-0.0393,0.245,1.037,0.455,-8.731,0.022587,-0.032549,-0.179942
227,1710361888.6023161,3.475492238998413,-56.022,63.387,-83.568,0.1719,-0.0373,0.2439,1.127,0.441,-8.905,0.069452,-0.02474,-0.281529
228,1710361888.6274908,3.500666856765747,-55.989,62.927,-83.453,0.1719,-0.0413,0.2407,0.94,1.054,-9.006,0.060273,-0.063042,-0.324248
229,1710361888.6522725,3.5254485607147217,-55.789,62.433,-83.206,0.1747,-0.0403,0.2463,1.158,1.099,-9.771,0.028339,-0.117697,-0.34492
230,1710361888.677304,3.5504801273345947,-55.618,61.888,-83.02,0.1738,-0.0373,0.2484,1.142,1.35,-10.857,0.025382,-0.062229,-0.374998
231,1710361888.7025647,3.5757408142089844,-55.743,61.407,-83.091,0.1729,-0.0314,0.2461,0.859,1.966,-11.111,0.026132,0.046218,-0.299532
232,1710361888.7289538,3.6021299362182617,-56.107,61.034,-83.42,0.172,-0.0323,0.2483,0.93,1.766,-11.024,-0.0353,0.115275,-0.267465
233,1710361888.752475,3.6256511211395264,-56.659,60.719,-83.951,0.1701,-0.0343,0.2438,0.863,1.905,-10.735,-0.028371,0.1952,-0.201672
234,1710361888.777473,3.650649070739746,-57.257,60.483,-84.498,0.1692,-0.0343,0.2503,0.544,0.333,-9.794,0.008843,0.146432,-0.211077
235,1710361888.8026178,3.6757938861846924,-57.461,60.094,-84.598,0.1682,-0.0362,0.2481,0.538,1.082,-10.884,0.067924,-0.014216,-0.296937
236,1710361888.8271365,3.700312614440918,-57.502,59.751,-84.522,0.1673,-0.0342,0.248,0.841,0.985,-11.8,0.09776,0.020359,-0.196468
237,1710361888.852547,3.7257230281829834,-57.752,59.5,-84.487,0.1655,-0.0352,0.2545,0.892,0.249,-11.759,0.208569,0.095502,-0.198958
238,1710361888.8771024,3.7502784729003906,-58.121,59.114,-84.521,0.1665,-0.0263,0.2533,0.022,0.422,-11.909,0.182064,0.110867,-0.341252
239,1710361888.902279,3.7754549980163574,-58.558,58.574,-84.688,0.1648,-0.0223,0.2477,-1.226,1.59,-11.559,0.118225,0.14019,-0.394329
240,1710361888.927336,3.8005120754241943,-59.071,58.131,-85.031,0.1602,-0.0221,0.2353,-2.003,1.735,-10.271,0.025013,0.154658,-0.272618
241,1710361888.9521163,3.8252923488616943,-59.35,57.81,-85.343,0.1601,-0.0222,0.2518,-2.046,1.151,-9.552,-0.09864,0.046894,-0.194377
242,1710361888.9770682,3.8502442836761475,-59.313,57.602,-85.433,0.161,-0.0232,0.254,-1.608,0.78,-8.417,-0.056107,-0.08152,-0.110604
243,1710361889.0044494,3.8776254653930664,-58.873,57.516,-85.026,0.1629,-0.0252,0.2454,-0.025,0.336,-8.689,0.071026,-0.203581,-0.013632
244,1710361889.0273159,3.900491952896118,-58.355,57.45,-84.414,0.1639,-0.0183,0.2487,0.96,0.222,-9.244,0.134803,-0.194452,-0.039514
245,1710361889.0564828,3.929658889770508,-57.926,57.309,-83.926,0.1647,-0.0262,0.2521,1.24,-0.101,-9.246,0.053005,-0.150218,-0.133867
246,1710361889.0770447,3.950220823287964,-57.611,56.956,-83.623,0.1647,-0.0282,0.2532,0.978,0.474,-8.865,0.018552,-0.141665,-0.275069
247,1710361889.1019554,3.9751315116882324,-57.357,56.545,-83.369,0.1693,-0.0263,0.2502,0.57,1.205,-8.931,0.033655,-0.115533,-0.2403
248,1710361889.1271808,4.000356912612915,-57.11,56.294,-83.12,0.1694,-0.0234,0.2513,0.834,0.828,-9.371,0.019211,-0.08807,-0.12997
249,1710361889.1518903,4.025066375732422,-57.036,56.064,-83.079,0.1684,-0.0243,0.2457,0.831,0.421,-8.873,-0.033715,-0.045151,-0.18114
250,1710361889.1831565,4.056332588195801,-56.946,55.784,-83.084,0.1675,-0.0233,0.2468,0.636,0.402,-8.986,-0.071697,-0.052472,-0.188952
251,1710361889.2023227,4.075498819351196,-56.789,55.439,-83.104,0.1704,-0.0184,0.2436,0.573,0.033,-8.925,-0.138148,-0.122988,-0.27303
252,1710361889.2269201,4.100096225738525,-56.5,55.042,-83.058,0.1676,-0.0204,0.2445,0.362,0.973,-9.309,-0.122955,-0.151704,-0.213096
253,1710361889.2521794,4.12535548210144,-56.199,54.847,-82.925,0.1724,-0.0106,0.2425,0.876,0.538,-9.744,-0.041862,-0.117584,-0.073414
254,1710361889.2777975,4.150973558425903,-56.082,54.752,-82.836,0.1712,-0.0224,0.247,1.649,-0.088,-9.924,0.004581,-0.018388,-0.062851
255,1710361889.3022127,4.175388813018799,-56.055,54.535,-82.862,0.1721,-0.0234,0.2449,1.576,0.166,-9.738,-0.075292,-0.049499,-0.209472
256,1710361889.3270247,4.200200796127319,-55.864,54.12,-82.928,0.1722,-0.0185,0.247,1.043,0.641,-10.175,-0.188109,-0.136247,-0.314135
257,1710361889.3521922,4.22536826133728,-55.748,53.714,-83.011,0.174,-0.0255,0.2439,0.342,1.046,-11.239,-0.067114,-0.009901,-0.241466
258,1710361889.3777082,4.250884294509888,-55.877,53.409,-83.16,0.1703,-0.0224,0.2436,-0.291,1.681,-11.007,-0.043858,0.030727,-0.193372
259,1710361889.4026635,4.275839567184448,-55.915,53.29,-83.311,0.1721,-0.0264,0.2449,-0.062,2.283,-10.638,-0.104258,-0.009542,0.006164
260,1710361889.4276526,4.300828695297241,-55.821,53.426,-83.348,0.1703,-0.0254,0.2371,1.157,1.038,-10.618,-0.053907,-0.023883,0.138182
261,1710361889.455244,4.328420162200928,-55.737,53.599,-83.268,0.1714,-0.0125,0.2414,1.733,0.115,-11.024,0.034333,-0.009671,0.093578
262,1710361889.4776266,4.350802659988403,-55.763,53.569,-83.181,0.1702,-0.0283,0.2437,1.109,0.209,-11.079,0.094388,0.011396,-0.0889
263,1710361889.5027103,4.3758864402771,-55.83,53.346,-83.092,0.1703,-0.0264,0.2415,-0.15,1.198,-11.397,0.088846,0.008038,-0.184418
264,1710361889.528376,4.401552200317383,-55.883,53.113,-83.012,0.1685,-0.0224,0.2468,-1.534,1.556,-11.463,0.090942,0.004996,-0.139176
265,1710361889.5520508,4.425226926803589,-55.912,52.897,-82.875,0.1722,-0.0215,0.247,-1.798,1.511,-11.175,0.11204,-0.013519,-0.175789
266,1710361889.5777273,4.450903415679932,-55.92,52.704,-82.785,0.1721,-0.0274,0.2471,-1.92,3.107,-10.192,0.030632,-0.015831,-0.06648
267,1710361889.6026528,4.4758288860321045,-55.825,52.764,-82.731,0.1712,-0.0244,0.2426,-0.931,2.258,-9.26,-0.030657,-0.031018,0.101876
268,1710361889.6275752,4.500751256942749,-55.731,52.915,-82.697,0.1693,-0.0303,0.247,0.01,0.875,-8.391,-0.035255,-0.029826,0.088838
269,1710361889.6526494,4.525825500488281,-55.537,52.898,-82.571,0.1693,-0.0254,0.2491,-0.13,0.26,-8.131,-0.006698,-0.123923,-0.065353
270,1710361889.6777568,4.550932884216309,-55.104,52.636,-82.182,0.172,-0.0304,0.2461,-0.851,1.124,-9.075,0.055725,-0.237469,-0.184663
271,1710361889.7050962,4.578272342681885,-54.601,52.444,-81.675,0.1712,-0.0264,0.2427,-1.042,2.373,-10.273,0.076443,-0.200667,-0.027109
272,1710361889.7275457,4.600721836090088,-54.247,52.548,-81.282,0.1731,-0.0205,0.2416,-0.189,1.496,-9.989,0.070545,-0.092785,0.140828
273,1710361889.7525382,4.625714302062988,-53.986,52.735,-81.027,0.1712,-0.0264,0.2394,0.434,0.752,-8.936,0.003223,-0.100539,0.132716
274,1710361889.777478,4.650654077529907,-53.704,52.794,-80.798,0.1739,-0.0304,0.2396,0.829,0.615,-8.514,0.009998,-0.113264,0.003725
275,1710361889.8024013,4.675577402114868,-53.444,52.719,-80.592,0.1739,-0.0304,0.244,0.658,1.669,-8.538,-0.019179,-0.117437,-0.02649
276,1710361889.827425,4.700601100921631,-53.213,52.734,-80.426,0.1748,-0.0314,0.2375,0.841,1.457,-8.204,0.004962,-0.080114,0.045179
277,1710361889.852395,4.725571155548096,-53.003,52.731,-80.225,0.1739,-0.0284,0.2429,0.806,1.337,-8.394,0.028139,-0.097844,-0.000686
278,1710361889.8774061,4.750582218170166,-52.792,52.669,-80.032,0.1748,-0.0324,0.2408,0.66,1.489,-8.793,0.019827,-0.085171,-0.033052
279,1710361889.9023588,4.7755348682403564,-52.629,52.611,-79.851,0.1767,-0.0315,0.2387,0.267,1.865,-8.966,0.046915,-0.073395,-0.015219
280,1710361889.9289238,4.802099943161011,-52.475,52.632,-79.611,0.1757,-0.0344,0.2365,0.127,1.888,-9.516,0.108133,-0.042008,0.063051
281,1710361889.9522939,4.825469970703125,-52.325,52.708,-79.314,0.1766,-0.0344,0.2431,0.401,0.932,-9.859,0.120944,-0.065148,0.04242
282,1710361889.9774117,4.850587844848633,-52.108,52.71,-79.001,0.1776,-0.0325,0.2398,0.544,1.055,-10.441,0.078709,-0.101598,0.012175
283,1710361890.0022573,4.875433444976807,-51.944,52.727,-78.778,0.1776,-0.0325,0.2442,0.745,1.141,-10.981,0.056939,-0.02479,0.043418
284,1710361890.0274172,4.900593280792236,-51.968,52.792,-78.682,0.1747,-0.0374,0.2397,0.794,0.535,-10.705,0.092248,0.049353,0.038459
285,1710361890.0522408,4.925416946411133,-51.979,52.75,-78.541,0.1748,-0.0304,0.2407,0.449,-0.23,-10.679,0.114906,-0.040123,-0.090766
286,1710361890.0771925,4.950368642807007,-51.856,52.516,-78.252,0.1777,-0.0265,0.2376,0.191,0.562,-11.865,0.14317,-0.089285,-0.151836
287,1710361890.1022005,4.975376605987549,-51.765,52.345,-77.933,0.1739,-0.0314,0.2374,-0.076,0.41,-12.244,0.204484,-0.035938,-0.085546
288,1710361890.127179,5.000355005264282,-51.757,52.18,-77.621,0.1758,-0.0295,0.2353,-0.15,0.381,-12.493,0.200803,-0.015904,-0.143302
289,1710361890.1520998,5.025275945663452,-51.933,51.923,-77.564,0.1759,-0.0235,0.2374,-0.535,0.842,-11.843,0.099034,0.072708,-0.207122
290,1710361890.1775784,5.050754547119141,-52.237,51.577,-77.755,0.174,-0.0235,0.2395,-1.027,0.646,-10.717,-0.019311,0.058005,-0.312273
291,1710361890.2021608,5.075336933135986,-52.418,51.09,-77.999,0.1712,-0.0254,0.2415,-1.706,1.333,-10.49,-0.097395,-0.024746,-0.348942
292,1710361890.2270963,5.1002724170684814,-52.533,50.724,-78.209,0.1712,-0.0254,0.2405,-1.823,1.598,-9.966,-0.063788,0.014788,-0.185605
293,1710361890.2520688,5.125244855880737,-52.488,50.571,-78.242,0.1741,-0.0205,0.2406,-1.012,1.207,-9.881,-0.04638,-0.063599,-0.038886
294,1710361890.277214,5.150390148162842,-52.351,50.563,-78.176,0.174,-0.0255,0.2373,0.172,-0.191,-9.865,-0.008216,-0.04856,0.01138
295,1710361890.302882,5.176058053970337,-52.282,50.427,-78.131,0.1721,-0.0254,0.2405,0.434,-0.628,-9.478,-0.021693,-0.061549,-0.169715
296,1710361890.3270636,5.200239658355713,-52.217,50.062,-78.174,0.174,-0.0255,0.2417,0.255,0.567,-9.186,-0.092331,-0.081068,-0.272586
297,1710361890.3522184,5.2253944873809814,-52.179,49.701,-78.314,0.175,-0.0225,0.2363,0.294,1.245,-8.8,-0.125558,-0.047626,-0.20149
298,1710361890.3773048,5.250480890274048,-52.264,49.554,-78.518,0.173,-0.0264,0.2373,0.571,0.831,-8.58,-0.065626,0.080931,-0.049021
299,1710361890.4019518,5.27512788772583,-52.451,49.511,-78.709,0.1739,-0.0294,0.2418,0.588,0.232,-7.622,-0.006215,0.087252,-0.048839
300,1710361890.42717,5.30034613609314,-52.513,49.327,-78.704,0.1683,-0.0303,0.2414,0.282,0.172,-7.765,0.039501,-0.059579,-0.18459
301,1710361890.451921,5.32509708404541,-52.396,49.038,-78.565,0.1703,-0.0254,0.2382,0.005,0.667,-8.808,0.036658,-0.092088,-0.168612
302,1710361890.4769847,5.350160837173462,-52.257,48.83,-78.41,0.1695,-0.0154,0.2347,0.1,0.796,-9.346,0.028133,-0.087747,-0.09943
303,1710361890.5024097,5.3755857944488525,-52.059,48.696,-78.277,0.1694,-0.0224,0.2348,0.59,0.452,-9.945,-0.045871,-0.117411,-0.074172
304,1710361890.5269384,5.4001145362854,-51.854,48.566,-78.201,0.1721,-0.0274,0.2307,0.903,0.328,-9.983,-0.049217,-0.096665,-0.064382
305,1710361890.5521562,5.425332307815552,-51.692,48.396,-78.146,0.1723,-0.0125,0.2316,0.922,0.671,-9.918,-0.05614,-0.111006,-0.11611
306,1710361890.57692,5.450096130371094,-51.452,48.202,-78.066,0.1711,-0.0323,0.2383,0.676,1.319,-10.888,-0.065005,-0.125932,-0.083929
307,1710361890.6031914,5.476367473602295,-51.336,48.14,-78.023,0.1739,-0.0314,0.2374,0.352,1.389,-11.557,0.001993,-0.011959,0.001333
308,1710361890.6284935,5.501669645309448,-51.353,48.238,-77.999,0.1702,-0.0313,0.2328,0.536,1.096,-11.769,0.028617,0.041458,0.097527
309,1710361890.6526864,5.525862455368042,-51.476,48.41,-78.046,0.1674,-0.0293,0.2414,1.092,0.922,-10.952,0.02253,0.096347,0.110358
310,1710361890.6779234,5.551099538803101,-51.486,48.569,-78.056,0.1712,-0.0264,0.2361,1.357,0.827,-10.771,-0.005909,-0.006971,0.118698
311,1710361890.703256,5.5764319896698,-51.391,48.745,-77.968,0.1683,-0.0362,0.2305,1.069,0.422,-11.699,0.019069,-0.009808,0.113226
312,1710361890.7276828,5.600858926773071,-51.359,48.796,-77.893,0.1682,-0.0382,0.2371,0.479,0.19,-12.013,0.031386,-0.002061,-0.039235
313,1710361890.7526658,5.625841856002808,-51.399,48.592,-77.925,0.1701,-0.0363,0.2383,-0.473,1.492,-12.344,-0.024073,0.011414,-0.174257
314,1710361890.7777953,5.650971412658691,-51.678,48.499,-78.133,0.1673,-0.0352,0.2392,-1.366,1.637,-11.658,0.012523,0.16702,-0.029623
315,1710361890.802974,5.67615008354187,-52.022,48.518,-78.424,0.1646,-0.0341,0.2379,-1.545,1.142,-10.331,-0.048153,0.133754,-0.032332
316,1710361890.8291926,5.70236873626709,-52.306,48.428,-78.758,0.1629,-0.0242,0.2355,-1.529,1.342,-9.827,-0.103301,0.12718,-0.119909
317,1710361890.8527052,5.725881338119507,-52.604,48.355,-79.098,0.1599,-0.039,0.2399,-1.39,1.493,-8.739,-0.069494,0.111642,-0.036056
318,1710361890.8777006,5.7508766651153564,-52.729,48.332,-79.268,0.1589,-0.0439,0.2443,-0.78,0.473,-8.046,-0.040215,0.009182,-0.039625
319,1710361890.902607,5.775783061981201,-52.654,48.147,-79.243,0.1592,-0.0251,0.2375,-0.768,0.0,-8.277,-0.00319,-0.095139,-0.183852
320,1710361890.9289193,5.802095413208008,-52.443,47.792,-79.034,0.162,-0.0242,0.2355,-1.092,1.125,-9.27,0.048818,-0.149538,-0.225857
321,1710361890.952565,5.8257410526275635,-52.222,47.569,-78.801,0.1609,-0.034,0.23,-0.885,1.948,-9.597,0.042494,-0.111759,-0.051405
322,1710361890.977588,5.850764036178589,-52.083,47.643,-78.638,0.1599,-0.037,0.2388,0.045,1.018,-9.116,0.035893,-0.013592,0.112694
323,1710361891.0026286,5.875804662704468,-52.042,47.674,-78.587,0.1617,-0.039,0.2411,0.669,-0.07,-8.352,0.002431,-0.026392,-0.060382
324,1710361891.0275884,5.900764465332031,-51.979,47.482,-78.55,0.1608,-0.042,0.2455,0.495,0.919,-8.117,-0.021859,-0.068223,-0.141894
325,1710361891.0525866,5.92576265335083,-51.851,47.242,-78.489,0.1598,-0.0439,0.24,0.507,1.311,-8.436,-0.010727,-0.077217,-0.13501
326,1710361891.0779512,5.951127290725708,-51.753,47.015,-78.404,0.1608,-0.039,0.2389,0.66,0.655,-8.435,0.004588,-0.084693,-0.182582
327,1710361891.1025836,5.975759744644165,-51.615,46.619,-78.315,0.1628,-0.0311,0.2378,0.521,1.229,-8.976,-0.025466,-0.127253,-0.284317
328,1710361891.1275094,6.000685453414917,-51.467,46.215,-78.259,0.1636,-0.0371,0.2412,0.318,2.283,-9.353,-0.023682,-0.098037,-0.215199
329,1710361891.1524556,6.025631666183472,-51.322,45.988,-78.158,0.1619,-0.0301,0.2377,0.655,1.959,-9.716,0.000658,-0.10736,-0.105857
330,1710361891.177945,6.05112099647522,-51.142,45.834,-78.033,0.1636,-0.0381,0.2281,1.046,1.46,-10.567,0.005838,-0.084337,-0.089726
331,1710361891.2024632,6.075639247894287,-51.177,45.72,-77.984,0.1618,-0.0361,0.24,0.806,1.169,-10.44,0.055549,0.030361,-0.085644
332,1710361891.2304084,6.10358452796936,-51.223,45.515,-77.994,0.1618,-0.0341,0.24,0.363,1.105,-10.722,-0.006423,-0.028404,-0.18036
333,1710361891.2523687,6.125544786453247,-51.289,45.334,-78.039,0.1627,-0.039,0.2423,0.167,1.713,-11.148,0.037171,0.053161,-0.075328
334,1710361891.2777843,6.150960445404053,-51.445,45.329,-78.014,0.1599,-0.036,0.2432,0.554,1.101,-11.038,0.107054,0.075791,-0.009741
335,1710361891.3023198,6.175495862960815,-51.547,45.241,-77.947,0.1562,-0.0349,0.2418,0.659,0.358,-10.26,0.09882,-0.014409,-0.12799
336,1710361891.3272774,6.200453519821167,-51.464,44.983,-77.698,0.159,-0.036,0.242,0.614,1.322,-11.369,0.162386,-0.076153,-0.159885
337,1710361891.3525586,6.225734710693359,-51.409,44.819,-77.386,0.1581,-0.034,0.243,0.317,0.884,-11.471,0.187441,-0.049586,-0.095377
338,1710361891.37727,6.250446081161499,-51.36,44.654,-77.089,0.1572,-0.033,0.244,-0.13,0.963,-11.729,0.183488,-0.031128,-0.104711
339,1710361891.4022238,6.275399923324585,-51.43,44.535,-76.891,0.1564,-0.0221,0.2384,-0.365,0.896,-11.736,0.156773,0.059155,-0.084196
340,1710361891.4272122,6.300388336181641,-51.724,44.41,-76.94,0.1545,-0.0299,0.2438,-0.638,0.616,-10.902,0.06391,0.161342,-0.136695
341,1710361891.4521887,6.325364828109741,-52.115,44.159,-77.213,0.1535,-0.0299,0.2471,-0.989,0.154,-9.694,-0.042276,0.12208,-0.275751
342,1710361891.4771745,6.350350618362427,-52.404,43.677,-77.57,0.1508,-0.0289,0.2469,-1.318,0.395,-9.723,-0.151302,0.053063,-0.40898
343,1710361891.5021677,6.3753437995910645,-52.64,43.127,-77.987,0.1545,-0.028,0.2493,-1.745,1.126,-9.24,-0.182223,0.020299,-0.366232
344,1710361891.5271385,6.400314569473267,-52.749,42.716,-78.278,0.1518,-0.02,0.2468,-1.423,0.781,-9.621,-0.127832,-0.006313,-0.241856
345,1710361891.552182,6.425358057022095,-52.818,42.412,-78.467,0.1507,-0.0318,0.2491,-0.708,-0.296,-9.59,-0.091593,-0.021877,-0.228514
346,1710361891.5771303,6.450306415557861,-52.833,41.968,-78.594,0.1498,-0.0308,0.2512,-0.425,-0.023,-9.585,-0.083526,-0.06911,-0.350298
347,1710361891.6020632,6.475239276885986,-52.775,41.381,-78.702,0.1517,-0.0299,0.2404,-0.43,0.977,-9.693,-0.115828,-0.124502,-0.407787
348,1710361891.6272666,6.500442743301392,-52.762,40.905,-78.846,0.1527,-0.0269,0.2459,-0.349,1.825,-9.813,-0.092637,-0.018997,-0.254934
349,1710361891.6520872,6.52526330947876,-52.904,40.7,-79.005,0.1508,-0.0298,0.2381,0.179,1.263,-9.171,-0.038544,0.07454,-0.112634
350,1710361891.6770816,6.550257682800293,-53.091,40.519,-79.239,0.1489,-0.0268,0.2467,0.693,0.574,-8.463,-0.111096,0.067161,-0.17831
351,1710361891.702031,6.575206995010376,-53.244,40.173,-79.529,0.1489,-0.0308,0.2534,0.581,0.952,-8.185,-0.140063,0.023416,-0.277944
352,1710361891.7270389,6.600214958190918,-53.341,39.82,-79.75,0.1473,-0.0169,0.2454,0.242,1.346,-8.323,-0.088984,0.003789,-0.222491
353,1710361891.7519968,6.625172853469849,-53.374,39.543,-79.902,0.1462,-0.0248,0.2498,0.218,0.868,-8.746,-0.087369,-0.034503,-0.186395
354,1710361891.7770348,6.650210857391357,-53.361,39.363,-79.936,0.1479,-0.0337,0.2413,0.273,1.007,-8.999,-0.012052,-0.032522,-0.072604
355,1710361891.8019812,6.675157308578491,-53.248,39.237,-79.875,0.1489,-0.0298,0.2479,0.647,0.454,-9.282,0.007971,-0.098853,-0.083615
356,1710361891.8269782,6.7001543045043945,-53.127,39.098,-79.741,0.1481,-0.0199,0.2488,0.856,0.585,-9.925,0.052995,-0.060263,-0.082218
357,1710361891.8519769,6.725152969360352,-53.071,38.958,-79.626,0.1471,-0.0278,0.2466,0.897,1.012,-10.19,0.044242,-0.0368,-0.092052
358,1710361891.876965,6.750141143798828,-53.021,38.83,-79.569,0.1452,-0.0277,0.2487,0.845,1.274,-10.319,-0.008457,-0.050328,-0.071052
359,1710361891.9019644,6.7751405239105225,-52.974,38.677,-79.582,0.1461,-0.0327,0.24,0.683,1.016,-10.538,-0.036384,-0.032802,-0.125421
360,1710361891.926945,6.800121068954468,-52.973,38.427,-79.612,0.1463,-0.0198,0.2498,0.153,1.426,-10.572,-0.022741,-0.038334,-0.192113
361,1710361891.9519036,6.825079679489136,-52.928,38.242,-79.644,0.1479,-0.0318,0.2478,-0.224,2.309,-11.025,-0.062067,-0.044162,-0.042277
362,1710361891.977785,6.850961208343506,-52.817,38.293,-79.657,0.147,-0.0337,0.2445,0.172,0.999,-10.629,-0.057927,-0.079181,0.073026
363,1710361892.002756,6.875932216644287,-52.618,38.376,-79.532,0.147,-0.0357,0.2478,0.699,0.525,-10.86,0.033643,-0.107269,0.066295
364,1710361892.0277228,6.9008989334106445,-52.38,38.436,-79.266,0.1479,-0.0337,0.2511,0.763,0.481,-11.356,0.114324,-0.124055,0.06618
365,1710361892.0518436,6.92501974105835,-52.153,38.41,-78.937,0.1479,-0.0347,0.2501,0.9,0.042,-12.393,0.115475,-0.106353,-0.055691
366,1710361892.0777342,6.950910329818726,-52.089,38.216,-78.814,0.1451,-0.0337,0.2466,0.153,1.235,-11.916,0.011177,-0.031703,-0.14843
367,1710361892.1026926,6.9758687019348145,-52.14,38.082,-78.855,0.1462,-0.0278,0.2455,-0.618,1.887,-10.886,-0.006572,0.041864,-0.051013
368,1710361892.1276746,7.000850677490234,-52.216,38.092,-78.86,0.1451,-0.0357,0.2477,-0.831,1.954,-10.219,0.045266,0.02789,0.027606
369,1710361892.151818,7.024994134902954,-52.315,38.219,-78.793,0.1425,-0.0227,0.2474,-0.617,1.654,-10.352,0.117898,0.114931,0.100523
370,1710361892.1776428,7.050818920135498,-52.569,38.452,-78.795,0.1434,-0.0267,0.2464,-0.558,1.376,-9.487,0.078373,0.197195,0.13986
371,1710361892.2040675,7.0772435665130615,-52.861,38.633,-78.942,0.1414,-0.0366,0.2475,-0.477,0.627,-8.181,-0.013687,0.149594,0.041295
372,1710361892.2276413,7.100817441940308,-53.053,38.589,-79.102,0.1377,-0.0345,0.2483,-0.685,0.541,-8.097,-0.034231,0.06447,-0.102776
373,1710361892.2527173,7.1258933544158936,-53.113,38.345,-79.209,0.1377,-0.0335,0.2483,-1.195,0.718,-8.39,-0.051207,-0.033698,-0.215395
374,1710361892.2776384,7.150814533233643,-53.009,37.941,-79.181,0.1359,-0.0344,0.2482,-1.581,1.443,-8.858,-0.019325,-0.16405,-0.277494
375,1710361892.3027806,7.175956726074219,-52.748,37.577,-78.999,0.1387,-0.0325,0.2462,-1.347,2.311,-10.019,0.055061,-0.171241,-0.17098
376,1710361892.3276596,7.200835704803467,-52.573,37.496,-78.741,0.1387,-0.0345,0.2363,-0.49,1.657,-10.114,0.113393,-0.072025,0.020535
377,1710361892.3526192,7.225795269012451,-52.472,37.491,-78.582,0.1386,-0.0375,0.2462,0.29,1.009,-9.407,0.019758,-0.062562,-0.010635
378,1710361892.3783724,7.251548528671265,-52.38,37.387,-78.572,0.1368,-0.0345,0.2483,0.691,0.672,-9.114,-0.058247,-0.059485,-0.101054
379,1710361892.4026191,7.275795221328735,-52.321,37.146,-78.631,0.1387,-0.0335,0.2484,0.754,1.108,-8.732,-0.073106,-0.072274,-0.192608
380,1710361892.427787,7.3009631633758545,-52.307,36.895,-78.715,0.1378,-0.0295,0.245,0.794,1.396,-8.79,-0.068213,-0.022852,-0.163499
381,1710361892.4526212,7.3257973194122314,-52.332,36.67,-78.775,0.1405,-0.0336,0.2441,0.873,1.123,-8.699,-0.044994,-0.027264,-0.183741
382,1710361892.4775486,7.350724697113037,-52.321,36.347,-78.831,0.1377,-0.0345,0.2461,0.554,1.315,-8.982,-0.018124,-0.050512,-0.230894
383,1710361892.5026376,7.375813722610474,-52.316,36.042,-78.762,0.1386,-0.0345,0.2462,0.491,1.519,-9.363,0.067427,-0.053353,-0.198209
384,1710361892.527676,7.400852203369141,-52.263,35.762,-78.644,0.1377,-0.0365,0.2428,0.788,1.501,-10.141,0.057327,-0.050597,-0.175488
385,1710361892.5525453,7.4257214069366455,-52.276,35.504,-78.563,0.1387,-0.0296,0.2428,1.03,1.154,-10.011,0.058461,-0.018385,-0.189253
386,1710361892.577507,7.450683116912842,-52.342,35.216,-78.497,0.1387,-0.0296,0.2461,0.861,1.117,-10.084,0.085011,0.013401,-0.214921
387,1710361892.6024213,7.475597381591797,-52.424,34.927,-78.402,0.1388,-0.0266,0.245,0.418,1.668,-10.39,0.096113,0.004064,-0.187322
388,1710361892.6274445,7.500620603561401,-52.501,34.736,-78.321,0.136,-0.0245,0.2448,0.333,1.791,-10.491,0.0777,0.027249,-0.104062
389,1710361892.6524527,7.5256288051605225,-52.61,34.576,-78.288,0.136,-0.0275,0.2437,0.595,1.043,-10.509,0.0616,0.054278,-0.159434
390,1710361892.677436,7.550612211227417,-52.778,34.38,-78.271,0.1341,-0.0275,0.237,0.428,1.434,-10.155,0.079798,0.070648,-0.139265
391,1710361892.702386,7.575562000274658,-52.885,34.186,-78.176,0.1323,-0.0254,0.2457,-0.035,1.365,-9.455,0.122296,-0.024997,-0.152984
392,1710361892.7274516,7.600627660751343,-52.744,33.937,-77.909,0.1314,-0.0224,0.2456,0.177,1.684,-10.664,0.136077,-0.143483,-0.148625
393,1710361892.7523208,7.625496864318848,-52.591,33.706,-77.554,0.1352,-0.0215,0.2436,0.129,1.205,-11.264,0.217458,-0.100919,-0.130315
394,1710361892.7774231,7.650599241256714,-52.473,33.481,-77.16,0.1316,-0.0155,0.2378,-0.256,0.881,-11.896,0.229129,-0.097401,-0.140317
395,1710361892.802342,7.675518035888672,-52.416,33.238,-76.817,0.1352,-0.0166,0.2424,-0.63,0.399,-12.041,0.191741,-0.067384,-0.183434
396,1710361892.8287103,7.701886415481567,-52.419,32.863,-76.646,0.1343,-0.0176,0.2457,-0.582,0.507,-11.94,0.065756,-0.04068,-0.306617
397,1710361892.852549,7.725725173950195,-52.612,32.438,-76.741,0.1344,-0.0086,0.2434,-0.927,1.187,-11.275,-0.022867,0.101748,-0.296489
398,1710361892.8772218,7.7503979206085205,-52.972,32.086,-77.028,0.1335,-0.0106,0.2423,-1.23,0.841,-9.809,-0.099109,0.159245,-0.288443
399,1710361892.9022582,7.775434255599976,-53.267,31.689,-77.34,0.1297,-0.0125,0.2388,-1.381,0.905,-8.828,-0.125854,0.057339,-0.321223
400,1710361892.9282956,7.801471710205078,-53.374,31.309,-77.565,0.1297,-0.0135,0.2388,-1.091,1.068,-9.03,-0.0998,-0.010857,-0.22178
401,1710361892.9553578,7.828533887863159,-53.411,31.079,-77.661,0.1299,-0.0056,0.2409,-0.462,-0.048,-9.002,-0.029536,-0.021964,-0.152499
402,1710361892.9772403,7.850416421890259,-53.424,30.752,-77.69,0.1297,-0.0165,0.2421,-0.215,-0.369,-9.083,-0.011637,-0.053356,-0.273957
403,1710361893.00221,7.875385999679565,-53.412,30.249,-77.703,0.1289,-0.0095,0.2431,-0.332,0.214,-9.078,-0.015443,-0.106368,-0.375882
404,1710361893.0271266,7.9003026485443115,-53.355,29.743,-77.68,0.1307,-0.0125,0.2421,-0.257,1.53,-9.556,-0.006095,-0.097517,-0.280182
405,1710361893.0525463,7.925722360610962,-53.302,29.437,-77.663,0.1316,-0.0106,0.24,0.313,1.049,-9.408,-0.019783,-0.072471,-0.180118
406,1710361893.077226,7.950402021408081,-53.287,29.165,-77.707,0.1289,-0.0085,0.2354,0.823,0.795,-9.552,-0.047237,-0.019247,-0.191378
407,1710361893.102155,7.97533106803894,-53.387,28.819,-77.82,0.1317,-0.0066,0.2399,0.82,0.459,-9.129,-0.049524,0.012468,-0.294561
408,1710361893.1270947,8.00027084350586,-53.502,28.343,-77.974,0.1317,-0.0066,0.2421,0.203,1.215,-9.138,-0.088567,-0.014604,-0.345758
409,1710361893.1520922,8.025268316268921,-53.554,27.936,-78.103,0.1271,-0.0035,0.2407,-0.417,1.745,-9.462,-0.059427,-0.023425,-0.22964
410,1710361893.177277,8.050453186035156,-53.59,27.74,-78.149,0.128,-0.0035,0.2396,-0.35,1.253,-9.7,-0.003965,0.002176,-0.08963
411,1710361893.2019925,8.07516860961914,-53.619,27.623,-78.146,0.1279,-0.0085,0.243,0.148,0.619,-9.484,0.003096,-0.016763,-0.092749
412,1710361893.2270575,8.100233554840088,-53.587,27.433,-78.155,0.127,-0.0085,0.2407,0.674,0.347,-9.644,-0.031194,-0.060407,-0.152863
413,1710361893.2548404,8.128016471862793,-53.558,27.199,-78.183,0.127,-0.0114,0.2375,0.815,0.818,-9.541,-0.030825,-0.048871,-0.143415
414,1710361893.2770104,8.150186538696289,-53.544,27.003,-78.214,0.1288,-0.0135,0.2442,0.93,0.895,-9.585,-0.024665,-0.033936,-0.125396
415,1710361893.3020275,8.175203561782837,-53.565,26.811,-78.235,0.128,-0.0065,0.243,1.198,0.812,-9.867,-0.000796,0.000199,-0.140071
416,1710361893.3287783,8.201954364776611,-53.636,26.589,-78.275,0.127,-0.0104,0.2408,1.281,0.623,-9.937,-0.026726,0.015779,-0.180486
417,1710361893.3523781,8.22555422782898,-53.698,26.256,-78.389,0.128,-0.0065,0.2419,0.873,0.807,-9.917,-0.096045,-0.03775,-0.269849
418,1710361893.3781986,8.2513747215271,-53.725,25.907,-78.533,0.127,-0.0114,0.243,0.416,1.748,-10.628,-0.081172,-0.012445,-0.19382
419,1710361893.411263,8.284439086914062,-53.798,25.712,-78.635,0.1262,-0.0045,0.2417,0.457,1.373,-10.573,-0.032305,0.026569,-0.124862
420,1710361893.4277916,8.300967693328857,-53.865,25.574,-78.682,0.1262,-0.0045,0.2384,0.477,1.258,-10.403,-0.006209,0.007407,-0.088288
421,1710361893.4519317,8.32510781288147,-53.84,25.48,-78.667,0.1233,-0.0084,0.2405,0.579,1.295,-10.73,0.007257,-0.045064,-0.040657
422,1710361893.478057,8.351233005523682,-53.753,25.396,-78.595,0.1242,-0.0123,0.2329,0.433,1.013,-11.02,0.036967,-0.068731,-0.061605
423,1710361893.5021906,8.375366687774658,-53.65,25.305,-78.479,0.1261,-0.0104,0.2396,0.194,1.431,-11.552,0.042992,-0.072579,-0.032235
424,1710361893.5360944,8.409270524978638,-53.596,25.23,-78.394,0.1242,-0.0104,0.2362,0.192,1.18,-11.626,0.030285,-0.027661,-0.064796
425,1710361893.5528972,8.4260733127594,-53.608,25.146,-78.408,0.1234,-0.0044,0.2405,-0.28,1.686,-11.228,-0.028088,0.017153,-0.037768
426,1710361893.5777583,8.450934410095215,-53.661,25.188,-78.48,0.1233,-0.0104,0.2394,-0.706,2.246,-10.505,-0.050207,0.054695,0.065095
427,1710361893.6027694,8.475945472717285,-53.737,25.353,-78.553,0.1252,-0.0045,0.2395,-0.731,1.187,-10.019,-0.015296,0.081167,0.101602
428,1710361893.6277072,8.500883340835571,-53.806,25.397,-78.604,0.1233,-0.0084,0.2394,-1.23,1.094,-10.053,-0.030878,0.029283,-0.025539
429,1710361893.652993,8.526169061660767,-53.88,25.42,-78.67,0.1205,-0.0093,0.2403,-1.516,1.893,-9.726,-0.016045,0.07348,0.053716
430,1710361893.6777127,8.550888776779175,-53.984,25.61,-78.732,0.1223,-0.0133,0.2394,-0.987,1.247,-9.221,-0.014059,0.098926,0.14779
431,1710361893.7026794,8.575855493545532,-54.071,25.777,-78.826,0.1186,-0.0142,0.2414,-0.377,0.128,-8.915,-0.069113,0.053982,0.054944
432,1710361893.7276995,8.600875616073608,-54.154,25.72,-78.937,0.1206,-0.0053,0.2392,-0.49,0.113,-8.37,-0.043492,0.024079,-0.126609
433,1710361893.7528625,8.626038551330566,-54.16,25.408,-78.997,0.1177,-0.0142,0.2402,-1.033,1.136,-8.301,-0.042743,-0.085416,-0.257102
434,1710361893.777674,8.650850057601929,-54.024,25.095,-78.971,0.1161,-0.0013,0.2323,-1.379,1.842,-9.503,0.024971,-0.110811,-0.131978
435,1710361893.802572,8.675748109817505,-53.923,24.995,-78.755,0.1195,-0.0142,0.2436,-1.014,1.494,-9.816,0.142879,-0.079245,-0.03181
436,1710361893.8276072,8.700783252716064,-53.82,24.918,-78.558,0.1224,-0.0103,0.2328,-0.318,1.372,-10.204,0.088075,-0.043792,-0.036477
437,1710361893.8525589,8.725734949111938,-53.782,24.832,-78.456,0.1214,-0.0123,0.2382,-0.072,0.835,-9.434,0.019624,-0.056701,-0.091274
438,1710361893.877864,8.751039981842041,-53.699,24.681,-78.437,0.1187,-0.0092,0.2391,-0.256,1.449,-9.418,-0.02064,-0.07444,-0.074933
439,1710361893.9025865,8.775762557983398,-53.625,24.613,-78.408,0.1206,-0.0053,0.2392,0.019,1.526,-9.277,0.003252,-0.044851,-0.014876
440,1710361893.9275799,8.800755977630615,-53.57,24.547,-78.383,0.1208,0.0056,0.2358,0.464,1.007,-9.155,-0.003895,-0.030647,-0.069422
441,1710361893.9553401,8.828516244888306,-53.544,24.351,-78.367,0.1197,-0.0063,0.2358,0.386,0.975,-8.765,0.009561,-0.059569,-0.16649
442,1710361893.9775336,8.850709676742554,-53.445,24.059,-78.29,0.1215,-0.0093,0.2349,0.262,1.55,-9.389,0.03339,-0.113679,-0.179907
443,1710361894.0047693,8.87794542312622,-53.35,23.797,-78.176,0.1214,-0.0123,0.2349,0.357,1.491,-9.642,0.064495,-0.080866,-0.163581
444,1710361894.0299685,8.903144598007202,-53.28,23.586,-78.043,0.1215,-0.0073,0.2371,0.582,1.61,-9.733,0.07778,-0.064113,-0.117697
445,1710361894.0523925,8.925568580627441,-53.222,23.406,-77.896,0.1224,-0.0093,0.2328,0.828,1.519,-9.976,0.076501,-0.062319,-0.12183
446,1710361894.0794885,8.952664613723755,-53.213,23.157,-77.791,0.1216,0.0006,0.2326,0.864,1.396,-10.401,0.060585,-0.020393,-0.197898
447,1710361894.1024437,8.975619792938232,-53.304,22.862,-77.778,0.1197,-0.0023,0.2336,0.599,1.474,-10.532,0.022617,0.033415,-0.226691
448,1710361894.12734,9.000516176223755,-53.464,22.564,-77.801,0.1216,-0.0014,0.2282,0.383,1.837,-10.423,0.029932,0.072642,-0.217859
449,1710361894.1528952,9.026071310043335,-53.687,22.359,-77.827,0.1188,-0.0043,0.2369,0.342,1.754,-10.203,0.041744,0.132053,-0.132629
450,1710361894.1773117,9.050487756729126,-53.947,22.228,-77.876,0.1197,-0.0053,0.2413,0.396,0.976,-10.243,0.01812,0.161658,-0.143327
451,1710361894.204089,9.07726502418518,-54.274,22.052,-77.977,0.1151,-0.0032,0.2366,0.15,0.465,-9.471,0.013196,0.174129,-0.194518
452,1710361894.2272232,9.100399255752563,-54.502,21.759,-78.009,0.117,0.0037,0.2367,-0.202,0.814,-9.38,0.061781,0.057785,-0.235828
453,1710361894.2522907,9.12546682357788,-54.574,21.444,-77.892,0.1153,0.0106,0.2332,0.093,0.808,-10.383,0.108869,-0.01797,-0.213602
454,1710361894.2773051,9.150481224060059,-54.631,21.104,-77.715,0.1133,0.0008,0.2354,0.206,0.099,-10.848,0.151029,-0.015298,-0.279202
455,1710361894.3022664,9.175442457199097,-54.712,20.591,-77.54,0.1124,0.0028,0.2353,-0.09,0.623,-11.136,0.132365,-0.02152,-0.39898
456,1710361894.3272176,9.200393676757812,-54.787,20.015,-77.403,0.1143,0.0077,0.2375,-0.695,1.605,-11.066,0.094414,-0.052872,-0.39326
457,1710361894.352305,9.225481033325195,-54.811,19.548,-77.27,0.1153,0.0106,0.2321,-0.678,2.155,-11.277,0.09532,-0.048731,-0.276435
458,1710361894.3772929,9.250468969345093,-54.896,19.22,-77.204,0.1154,0.0166,0.2342,-0.452,2.068,-10.815,0.035807,0.030742,-0.207176
459,1710361894.4023004,9.275476455688477,-55.046,18.957,-77.274,0.1116,0.0107,0.234,-0.194,1.679,-9.745,-0.047153,0.060472,-0.208667
460,1710361894.4272187,9.300394773483276,-55.223,18.668,-77.42,0.1117,0.0177,0.235,-0.278,1.873,-9.107,-0.076213,0.07284,-0.225331
461,1710361894.452103,9.325278997421265,-55.369,18.424,-77.582,0.1098,0.0138,0.235,-0.401,2.129,-9.184,-0.076053,0.052854,-0.151009
462,1710361894.4771183,9.350294351577759,-55.528,18.262,-77.722,0.1109,0.0217,0.2306,-0.384,1.244,-9.697,-0.062406,0.099731,-0.141155
463,1710361894.5021188,9.375294923782349,-55.759,18.057,-77.883,0.1107,0.0108,0.2362,-0.892,0.984,-9.834,-0.074574,0.126701,-0.192607
464,1710361894.527054,9.400230169296265,-55.977,17.852,-78.097,0.1079,0.0098,0.2426,-1.339,1.124,-9.856,-0.116745,0.10652,-0.141116
465,1710361894.5528786,9.42605471611023,-56.144,17.807,-78.255,0.1079,0.0089,0.2305,-1.299,0.764,-9.945,-0.042991,0.120091,-0.001584
466,1710361894.578267,9.451443195343018,-56.253,17.867,-78.334,0.106,0.0089,0.237,-0.851,0.368,-9.666,-0.036975,0.048447,0.035368
467,1710361894.6020837,9.475259780883789,-56.276,17.91,-78.354,0.1059,0.0029,0.2393,-0.038,-0.259,-9.502,0.015256,0.009309,-0.000187
468,1710361894.6279702,9.50114631652832,-56.27,17.809,-78.325,0.106,0.0039,0.2305,0.259,0.103,-9.43,0.005817,-0.039239,-0.112135
469,1710361894.652026,9.52520203590393,-56.216,17.583,-78.306,0.107,0.0118,0.237,0.084,1.28,-9.767,0.003522,-0.071362,-0.14972
470,1710361894.6785686,9.55174469947815,-56.153,17.457,-78.276,0.1077,-0.0001,0.2306,-0.024,2.25,-10.371,0.015292,-0.038904,-0.011394
471,1710361894.7021449,9.575320959091187,-56.159,17.532,-78.212,0.1069,0.0059,0.2415,0.099,1.849,-10.205,0.041623,0.031868,0.07438
472,1710361894.7278252,9.601001262664795,-56.204,17.7,-78.218,0.1069,0.0089,0.2381,0.243,1.765,-10.072,-0.023323,0.067133,0.129159
473,1710361894.7519798,9.625155925750732,-56.268,17.908,-78.29,0.1079,0.0108,0.2371,0.24,1.401,-9.585,-0.040433,0.076701,0.12813
474,1710361894.777864,9.651040077209473,-56.308,18.125,-78.337,0.1022,0.005,0.239,0.029,1.755,-9.599,-0.017346,0.049755,0.163964
475,1710361894.801932,9.675108194351196,-56.333,18.422,-78.321,0.1051,0.0119,0.238,-0.154,1.602,-9.798,0.032455,0.058821,0.220774
476,1710361894.8277674,9.70094347000122,-56.304,18.782,-78.272,0.1051,0.0099,0.2391,-0.325,1.457,-9.645,0.020148,0.008037,0.258964
477,1710361894.8527155,9.725891590118408,-56.199,19.19,-78.194,0.1051,0.0069,0.2359,-0.461,1.925,-9.628,0.036688,-0.019314,0.331235
478,1710361894.8778117,9.750987768173218,-56.013,19.741,-78.07,0.104,0.001,0.2413,-0.24,1.898,-9.97,0.050427,-0.036226,0.453888
479,1710361894.9027708,9.775946855545044,-55.821,20.428,-77.927,0.1067,-0.007,0.2416,0.152,1.231,-9.769,0.031148,-0.028612,0.495205
480,1710361894.9277472,9.800923347473145,-55.56,21.049,-77.867,0.1085,-0.01,0.2319,0.17,1.229,-9.401,-0.05489,-0.107499,0.433428
481,1710361894.9527678,9.825943946838379,-55.216,21.635,-77.809,0.1094,-0.011,0.2407,0.141,2.044,-9.649,-0.034,-0.127537,0.485011
482,1710361894.979942,9.853118181228638,-54.851,22.382,-77.699,0.1103,-0.013,0.2397,0.257,1.781,-9.711,-0.014061,-0.114072,0.596942
483,1710361895.0027258,9.875901937484741,-54.453,23.215,-77.552,0.113,-0.016,0.2388,0.384,1.554,-9.841,-0.015392,-0.132901,0.637423
484,1710361895.028068,9.901244163513184,-54.023,24.117,-77.399,0.1122,-0.013,0.2387,0.466,1.359,-9.986,-0.018031,-0.127052,0.698082
485,1710361895.0527573,9.925933361053467,-53.572,25.048,-77.229,0.1138,-0.023,0.2379,0.609,1.178,-9.969,-0.014124,-0.144219,0.696722
486,1710361895.077779,9.950955152511597,-53.106,26.029,-77.028,0.1167,-0.0201,0.238,0.564,1.773,-10.268,0.007578,-0.111196,0.778501
487,1710361895.1026564,9.975832462310791,-52.664,27.171,-76.814,0.1165,-0.03,0.237,0.652,1.483,-10.005,0.010883,-0.069845,0.871747
488,1710361895.1276593,10.000835418701172,-52.213,28.371,-76.603,0.1146,-0.0369,0.2249,0.731,1.121,-9.61,-0.013652,-0.093556,0.866625
489,1710361895.1526718,10.025847911834717,-51.725,29.554,-76.377,0.1146,-0.0379,0.2326,0.467,1.881,-9.89,-0.006815,-0.086057,0.908331
490,1710361895.1776068,10.050782918930054,-51.205,30.862,-76.103,0.1163,-0.0419,0.2328,0.313,1.23,-9.871,0.011272,-0.09519,0.969623
491,1710361895.2044528,10.07762885093689,-50.623,32.141,-75.796,0.1163,-0.0468,0.2317,0.333,1.441,-10.099,-0.013204,-0.125836,0.943188
492,1710361895.2275994,10.100775480270386,-50.009,33.401,-75.509,0.1152,-0.0557,0.234,0.144,1.643,-9.886,-0.046976,-0.134911,0.939781
493,1710361895.2525663,10.125742435455322,-49.353,34.703,-75.198,0.117,-0.0558,0.2385,-0.024,1.878,-9.827,-0.039566,-0.138823,1.006149
494,1710361895.2775528,10.150728940963745,-48.648,36.093,-74.868,0.1161,-0.0607,0.2341,0.044,1.575,-9.687,-0.062809,-0.132227,1.061964
495,1710361895.3025286,10.175704717636108,-47.87,37.457,-74.502,0.1169,-0.0647,0.2309,0.35,1.029,-9.356,-0.077426,-0.191143,1.00748
496,1710361895.3281283,10.20130443572998,-46.976,38.745,-74.052,0.1168,-0.0736,0.2343,0.368,1.278,-10.032,-0.054814,-0.227547,1.009685
497,1710361895.3524644,10.225640535354614,-46.099,40.086,-73.524,0.1186,-0.0746,0.23,0.25,1.439,-10.43,-0.004583,-0.166168,1.054116
498,1710361895.3775027,10.250678777694702,-45.231,41.535,-72.952,0.1185,-0.0855,0.2203,0.261,1.071,-10.443,-0.004814,-0.132537,1.124796
499,1710361895.4024234,10.275599479675293,-44.385,43.002,-72.419,0.1176,-0.0795,0.2311,0.274,0.592,-9.993,-0.043607,-0.105783,1.084627
500,1710361895.4274032,10.300579309463501,-43.512,44.373,-71.902,0.1175,-0.0865,0.2301,0.193,0.601,-9.893,-0.076439,-0.136776,1.014901
501,1710361895.4526365,10.325812578201294,-42.589,45.674,-71.362,0.1127,-0.0972,0.231,-0.089,1.184,-9.865,-0.07975,-0.147854,1.015793
502,1710361895.4774628,10.35063886642456,-41.61,47.027,-70.738,0.1126,-0.1022,0.2278,-0.247,1.43,-9.741,-0.054708,-0.129925,1.069697
503,1710361895.5023525,10.375528573989868,-40.548,48.422,-70.015,0.1126,-0.1071,0.2202,-0.108,1.084,-9.677,-0.042208,-0.151731,1.083883
504,1710361895.5273862,10.400562286376953,-39.459,49.782,-69.252,0.1088,-0.11,0.2277,-0.018,0.888,-9.754,-0.040998,-0.126495,1.052819
505,1710361895.55237,10.425546169281006,-38.318,51.098,-68.442,0.1069,-0.1159,0.2265,-0.046,0.924,-9.665,-0.060697,-0.155556,1.028769
506,1710361895.577326,10.450502157211304,-37.062,52.338,-67.56,0.1059,-0.1208,0.2276,0.019,1.111,-9.727,-0.082567,-0.191563,0.996419
507,1710361895.604227,10.477403163909912,-35.711,53.56,-66.589,0.1049,-0.1228,0.2287,0.053,1.561,-9.951,-0.069268,-0.177558,1.026383
508,1710361895.6272748,10.500450849533081,-34.27,54.846,-65.506,0.1029,-0.1317,0.2232,0.01,1.405,-9.77,-0.052948,-0.171179,1.072864
509,1710361895.6522563,10.525432348251343,-32.745,56.119,-64.328,0.1001,-0.1365,0.2263,0.054,1.185,-9.901,-0.064124,-0.168982,1.046247
510,1710361895.6772964,10.550472497940063,-31.167,57.32,-63.096,0.0981,-0.1474,0.2263,-0.039,1.247,-9.86,-0.057197,-0.168154,1.005991
511,1710361895.7024891,10.57566523551941,-29.479,58.492,-61.775,0.098,-0.1504,0.2264,-0.297,1.634,-9.927,-0.092428,-0.180842,1.033286
512,1710361895.7273245,10.600500583648682,-27.573,59.697,-60.258,0.0934,-0.1493,0.2228,-0.278,1.268,-9.799,-0.066241,-0.189596,1.080229
513,1710361895.7521865,10.625362634658813,-25.544,60.856,-58.58,0.0914,-0.1581,0.2151,-0.146,1.036,-9.796,-0.059009,-0.193347,1.038687
514,1710361895.7772334,10.650409460067749,-23.38,61.941,-56.767,0.0914,-0.1581,0.2195,-0.14,1.083,-9.761,-0.060648,-0.212878,1.02739
515,1710361895.8021488,10.6753249168396,-21.089,62.963,-54.815,0.0869,-0.154,0.2169,-0.119,0.957,-9.921,-0.056349,-0.202711,0.985473
516,1710361895.827384,10.700560092926025,-18.683,63.918,-52.766,0.0857,-0.1718,0.2204,-0.161,1.203,-9.892,-0.099793,-0.215409,0.977987
517,1710361895.8521013,10.725277423858643,-16.092,64.802,-50.61,0.0829,-0.1728,0.2092,-0.01,1.513,-9.839,-0.140742,-0.230903,0.974449
518,1710361895.8779929,10.751168966293335,-13.309,65.655,-48.283,0.08,-0.1777,0.219,0.187,1.173,-9.566,-0.129489,-0.220401,0.964616
519,1710361895.90213,10.775305986404419,-10.508,66.402,-45.89,0.0781,-0.1826,0.2145,0.196,1.082,-9.743,-0.106702,-0.224483,0.88982
520,1710361895.927112,10.800288200378418,-7.707,67.037,-43.483,0.0743,-0.1864,0.2132,0.029,1.739,-9.771,-0.128398,-0.229632,0.861758
521,1710361895.9520757,10.825251817703247,-4.66,67.637,-40.857,0.0706,-0.1913,0.2152,0.034,1.852,-9.719,-0.122255,-0.239965,0.905649
522,1710361895.977901,10.85107707977295,-1.332,68.212,-37.904,0.0687,-0.1942,0.2119,0.144,1.848,-10.019,-0.073954,-0.23385,0.953444
523,1710361896.0021093,10.875285387039185,2.176,68.768,-34.701,0.0659,-0.1902,0.2127,0.496,1.254,-10.229,-0.038162,-0.209203,0.9409
524,1710361896.028195,10.901371002197266,5.598,69.194,-31.606,0.063,-0.203,0.2138,0.635,1.351,-10.156,-0.086832,-0.226857,0.844182
525,1710361896.051982,10.925158023834229,8.985,69.532,-28.57,0.0583,-0.2088,0.2092,0.515,1.808,-10.229,-0.092771,-0.198877,0.852753
526,1710361896.077908,10.95108413696289,12.559,69.88,-25.33,0.0582,-0.2128,0.2125,0.478,1.588,-10.14,-0.065741,-0.158587,0.898201
527,1710361896.1020787,10.975254774093628,16.301,70.213,-21.873,0.0527,-0.2097,0.2089,0.569,1.174,-10.146,-0.035961,-0.136274,0.91388
528,1710361896.1278708,11.001046895980835,19.926,70.466,-18.519,0.048,-0.2135,0.2108,0.623,0.769,-10.13,-0.044447,-0.112932,0.818318
529,1710361896.153947,11.027123212814331,23.354,70.651,-15.34,0.0461,-0.2184,0.2129,0.377,1.149,-9.987,-0.035748,-0.102181,0.799344
530,1710361896.1778371,11.051013231277466,26.849,70.782,-12.085,0.0405,-0.2203,0.206,0.488,0.768,-9.924,-0.022488,-0.096479,0.797195
531,1710361896.2029314,11.076107501983643,30.173,70.864,-8.95,0.0359,-0.2162,0.2112,0.692,0.597,-9.772,0.007121,-0.068818,0.733571
532,1710361896.2277675,11.100943565368652,33.079,70.873,-6.191,0.0322,-0.2201,0.2132,0.608,0.604,-9.413,0.008914,-0.09769,0.6102
533,1710361896.253957,11.127133131027222,35.679,70.779,-3.714,0.032,-0.229,0.21,0.38,1.065,-9.778,0.020483,-0.118574,0.584284
534,1710361896.2778556,11.151031732559204,38.176,70.638,-1.297,0.0265,-0.2259,0.2118,0.202,0.944,-10.071,0.054417,-0.122341,0.557977
535,1710361896.3027694,11.175945520401001,40.538,70.472,1.016,0.0237,-0.2258,0.2116,-0.071,1.213,-10.165,0.059466,-0.111102,0.55114
536,1710361896.3277786,11.200954675674438,42.804,70.273,3.241,0.0228,-0.2287,0.2083,0.072,1.034,-10.462,0.06141,-0.117822,0.518881
537,1710361896.3527985,11.225974559783936,44.901,70.072,5.296,0.0191,-0.2296,0.2081,0.198,1.141,-10.234,0.051508,-0.08501,0.507091
538,1710361896.3777936,11.250969648361206,47.007,69.879,7.323,0.0163,-0.2306,0.2145,0.351,1.259,-9.82,0.019209,-0.068877,0.527895
539,1710361896.4026396,11.275815725326538,49.174,69.671,9.343,0.0135,-0.2295,0.211,0.6,0.576,-9.451,-0.016821,-0.061157,0.528134
540,1710361896.4277122,11.300888299942017,51.029,69.466,11.096,0.0107,-0.2334,0.2131,0.583,0.437,-9.308,0.029209,-0.063806,0.429076
541,1710361896.4527266,11.325902700424194,52.492,69.248,12.545,0.0089,-0.2314,0.203,0.383,0.824,-9.904,0.065702,-0.068979,0.363422
542,1710361896.4776516,11.350827693939209,53.836,69.049,13.862,0.0034,-0.2233,0.2081,0.288,0.746,-10.238,0.029082,-0.041932,0.344414
543,1710361896.5026114,11.375787496566772,55.063,68.868,15.006,0.0042,-0.2322,0.2006,0.131,0.923,-9.962,-0.01997,-0.052051,0.32537
544,1710361896.527688,11.400864124298096,56.159,68.685,16.015,0.0015,-0.2252,0.2091,0.316,0.403,-9.875,-0.003819,-0.046816,0.272058
545,1710361896.5526044,11.425780534744263,56.968,68.513,16.737,-0.0005,-0.2351,0.2113,0.176,0.901,-9.93,-0.034109,-0.055765,0.226657
546,1710361896.578122,11.451297998428345,57.731,68.327,17.408,-0.0013,-0.2301,0.2123,0.099,0.941,-9.709,-0.026927,-0.072051,0.222796
547,1710361896.602623,11.475799083709717,58.449,68.101,18.04,-0.0069,-0.2349,0.212,0.062,1.234,-9.954,-0.01678,-0.08777,0.23935
548,1710361896.6275458,11.50072193145752,59.248,67.871,18.774,-0.006,-0.233,0.2076,0.347,0.622,-10.007,-0.004095,-0.074069,0.228062
549,1710361896.653911,11.527087211608887,59.756,67.675,19.221,-0.006,-0.231,0.2098,0.261,0.902,-9.924,-0.027147,-0.091121,0.142826
550,1710361896.6775002,11.550676345825195,60.126,67.482,19.504,-0.007,-0.2379,0.2109,0.105,1.151,-9.957,-0.046285,-0.085786,0.141439
551,1710361896.7024696,11.575645685195923,60.511,67.327,19.825,-0.0061,-0.2399,0.2121,0.109,0.799,-10.048,-0.007471,-0.046595,0.116832
552,1710361896.7274714,11.600647449493408,60.817,67.191,20.087,-0.0049,-0.2261,0.2065,0.04,1.144,-10.109,-0.021273,-0.055798,0.116019
553,1710361896.752526,11.625702142715454,61.209,67.046,20.411,-0.0117,-0.2447,0.2107,0.092,1.129,-10.107,-0.029997,-0.054308,0.153535
554,1710361896.7774065,11.650582551956177,61.691,66.912,20.812,-0.0098,-0.2408,0.2119,0.252,0.492,-10.047,-0.028724,-0.024534,0.149479
555,1710361896.8024096,11.675585746765137,62.066,66.821,21.131,-0.0136,-0.2457,0.2029,0.231,0.301,-9.7,-0.009832,-0.022844,0.097294
556,1710361896.8273904,11.700566530227661,62.311,66.714,21.365,-0.0153,-0.2387,0.2137,0.205,0.607,-9.711,0.024446,-0.052123,0.091677
557,1710361896.8523908,11.725566864013672,62.551,66.595,21.65,-0.0154,-0.2427,0.2115,0.358,0.491,-10.026,0.053035,-0.045204,0.085882
558,1710361896.8773756,11.750551700592041,62.714,66.502,21.867,-0.0154,-0.2407,0.2093,0.445,0.222,-10.054,0.042102,-0.042727,0.041285
559,1710361896.9023926,11.775568723678589,62.598,66.46,21.817,-0.0162,-0.2347,0.2081,0.308,0.485,-9.941,0.030602,-0.048594,-0.061492
560,1710361896.9273953,11.80057144165039,62.389,66.434,21.705,-0.0162,-0.2377,0.2125,0.282,1.204,-10.154,0.067403,-0.022179,-0.029657
561,1710361896.9522734,11.825449466705322,62.462,66.399,21.857,-0.019,-0.2376,0.1981,0.409,1.057,-10.24,0.046782,-0.003539,0.054404
562,1710361896.9773362,11.850512266159058,62.552,66.391,21.978,-0.0181,-0.2396,0.2025,0.461,0.77,-9.967,0.005805,0.008478,7.1e-05
563,1710361897.0023205,11.875496625900269,62.51,66.399,21.911,-0.019,-0.2396,0.208,0.442,0.706,-9.579,-0.018521,0.000962,-0.021534
564,1710361897.0283237,11.90149974822998,62.34,66.409,21.774,-0.0191,-0.2436,0.2113,0.496,0.411,-9.494,0.029783,-0.025551,-0.07165
565,1710361897.0522864,11.925462484359741,61.945,66.391,21.458,-0.0191,-0.2446,0.2124,0.508,0.577,-9.849,0.038933,-0.059176,-0.104653
566,1710361897.0792627,11.952438831329346,61.495,66.358,21.11,-0.0207,-0.2297,0.2077,0.496,0.509,-9.96,0.04359,-0.07685,-0.112213
567,1710361897.102261,11.97543716430664,60.975,66.282,20.692,-0.0189,-0.2327,0.2112,0.657,0.497,-10.214,0.043373,-0.11116,-0.12025
568,1710361897.127199,12.000375032424927,60.463,66.215,20.274,-0.0171,-0.2357,0.2124,0.755,0.528,-10.23,0.033169,-0.080914,-0.117059
569,1710361897.1521533,12.025329351425171,59.981,66.162,19.859,-0.0191,-0.2406,0.208,0.878,0.693,-9.965,0.00094,-0.08419,-0.111666
570,1710361897.1771903,12.050366401672363,59.559,66.105,19.488,-0.0172,-0.2396,0.2048,1.095,0.589,-9.751,0.017867,-0.077774,-0.106077
571,1710361897.2022014,12.075377464294434,59.092,66.058,19.086,-0.0191,-0.2416,0.2179,1.417,0.556,-9.828,0.015651,-0.062972,-0.124891
572,1710361897.2279522,12.101128339767456,58.429,66.069,18.495,-0.0144,-0.2407,0.2127,1.302,0.562,-9.464,0.00131,-0.054539,-0.212841
573,1710361897.2521915,12.125367641448975,57.607,66.057,17.717,-0.0134,-0.2318,0.2082,0.952,1.075,-9.414,-0.028738,-0.09479,-0.213008
574,1710361897.2781303,12.151306390762329,56.859,65.998,16.991,-0.0135,-0.2387,0.2061,0.818,1.273,-9.742,-0.019196,-0.100321,-0.171812
575,1710361897.3026767,12.17585277557373,56.3,65.947,16.481,-0.0127,-0.2447,0.2128,0.924,1.001,-9.821,0.007677,-0.070778,-0.12958
576,1710361897.3279452,12.20112133026123,55.768,65.905,16.018,-0.0135,-0.2427,0.2127,1.139,0.745,-9.898,0.012898,-0.070001,-0.144946
577,1710361897.3520517,12.22522783279419,55.168,65.854,15.467,-0.0136,-0.2447,0.216,1.321,0.585,-9.8,-0.012557,-0.08017,-0.158111
578,1710361897.3779266,12.251102685928345,54.427,65.807,14.78,-0.0117,-0.2408,0.2106,1.515,0.39,-9.683,-0.003392,-0.088964,-0.229913
579,1710361897.402047,12.275223016738892,53.577,65.755,14.006,-0.0097,-0.2369,0.2052,1.408,1.009,-9.998,0.002144,-0.078696,-0.205759
580,1710361897.4278636,12.301039695739746,52.892,65.722,13.388,-0.0089,-0.2408,0.2097,1.617,0.588,-9.906,0.008805,-0.054256,-0.18639
581,1710361897.4538357,12.327011823654175,52.126,65.701,12.684,-0.0089,-0.2428,0.2108,1.555,0.646,-9.849,-0.02232,-0.069336,-0.226374
582,1710361897.4780955,12.351271629333496,51.253,65.692,11.87,-0.0098,-0.2428,0.2108,1.357,1.001,-9.716,0.001347,-0.054754,-0.245985
583,1710361897.5037622,12.376938343048096,50.403,65.656,11.083,-0.0089,-0.2408,0.2086,1.214,1.253,-10.074,-0.017017,-0.077968,-0.225941
584,1710361897.527846,12.40102219581604,49.755,65.644,10.504,-0.008,-0.2418,0.2054,1.281,1.192,-10.044,0.017431,-0.02871,-0.16947
585,1710361897.552869,12.426045179367065,49.201,65.639,10.007,-0.009,-0.2448,0.212,1.158,1.549,-10.051,0.001021,-0.02648,-0.139138
586,1710361897.5778787,12.451054811477661,48.849,65.616,9.651,-0.0053,-0.2449,0.2133,1.104,1.676,-10.145,-0.036354,-0.026339,-0.062219
587,1710361897.6093218,12.482497930526733,48.752,65.623,9.516,-0.0071,-0.2458,0.211,1.264,1.481,-10.078,-0.034263,0.012419,-0.005053
588,1710361897.627813,12.500989198684692,48.791,65.629,9.497,-0.009,-0.2468,0.2065,1.314,1.054,-9.989,-0.031169,0.001492,0.013389
589,1710361897.6531117,12.52628779411316,48.713,65.614,9.41,-0.0068,-0.228,0.2064,1.143,0.936,-10.446,-0.004495,-0.024428,-0.049548
590,1710361897.6778278,12.55100393295288,48.444,65.603,9.148,-0.0089,-0.2408,0.2086,0.597,1.0,-10.806,-0.011634,-0.009741,-0.089674
591,1710361897.705025,12.578201055526733,48.117,65.596,8.817,-0.0108,-0.2457,0.2097,0.024,1.038,-10.767,-0.029948,-0.022709,-0.091356
592,1710361897.7278008,12.600976943969727,47.87,65.577,8.554,-0.0081,-0.2478,0.2099,-0.226,1.156,-10.617,-0.015433,-0.021741,-0.047293
593,1710361897.75347,12.626646041870117,47.73,65.539,8.444,-0.0117,-0.2418,0.2063,-0.09,0.832,-10.34,0.022271,-0.044339,-0.029788
594,1710361897.7779405,12.651116609573364,47.384,65.438,8.16,-0.0107,-0.2408,0.2085,0.047,0.547,-10.498,0.019003,-0.101591,-0.125378
595,1710361897.802772,12.675948143005371,46.906,65.327,7.78,-0.0099,-0.2468,0.2097,0.249,1.246,-10.66,0.053351,-0.078764,-0.113461
596,1710361897.8278852,12.701061248779297,46.658,65.282,7.652,-0.008,-0.2409,0.2087,0.616,1.377,-10.655,0.068355,-0.011186,-0.043497
597,1710361897.8526719,12.725847959518433,46.548,65.321,7.631,-0.0099,-0.2468,0.2097,0.75,1.093,-10.245,0.041203,0.04408,-0.049027
598,1710361897.8776374,12.750813484191895,46.323,65.441,7.449,-0.0127,-0.2447,0.2117,0.412,1.49,-9.533,-0.007312,0.090431,-0.090165
599,1710361897.902649,12.775825023651123,46.025,65.58,7.161,-0.0136,-0.2496,0.2084,0.018,2.145,-9.7,-0.003639,0.112953,-0.07956
600,1710361897.9275906,12.800766706466675,46.004,65.817,7.139,-0.0153,-0.2347,0.2081,-0.205,1.734,-9.422,-0.008464,0.190651,-0.003606
601,1710361897.9535098,12.826685905456543,45.82,66.077,6.932,-0.0164,-0.2466,0.2082,-0.399,1.085,-8.998,-0.038263,0.154244,-0.136324
602,1710361897.9775398,12.85071587562561,45.181,66.241,6.255,-0.0146,-0.2496,0.2084,-0.763,1.446,-8.747,-0.07727,0.048923,-0.222435
603,1710361898.0029614,12.876137495040894,44.339,66.242,5.396,-0.0155,-0.2516,0.2006,-1.169,1.488,-8.911,-0.041414,-0.064471,-0.234676
604,1710361898.0275075,12.900683641433716,43.561,66.104,4.685,-0.0125,-0.2368,0.2061,-0.978,1.755,-9.664,0.020534,-0.133366,-0.18316
605,1710361898.0525327,12.925708770751953,43.126,65.902,4.321,-0.0127,-0.2497,0.2107,-0.114,1.781,-9.731,0.015583,-0.155928,-0.061695
606,1710361898.0774915,12.9506676197052,43.045,65.676,4.24,-0.0118,-0.2477,0.2096,1.056,1.039,-9.303,-0.006122,-0.158319,0.002079
607,1710361898.102526,12.975702047348022,42.894,65.458,4.077,-0.0118,-0.2507,0.2064,1.565,0.887,-9.31,-0.027978,-0.142243,-0.05857
608,1710361898.127439,13.000615119934082,42.525,65.268,3.702,-0.0129,-0.2586,0.2097,1.597,1.076,-9.282,-0.026351,-0.129854,-0.126347
609,1710361898.1524508,13.02562689781189,42.007,65.118,3.2,-0.0136,-0.2477,0.2084,1.581,1.504,-9.481,-0.010732,-0.087846,-0.14986
610,1710361898.177431,13.050607204437256,41.485,65.062,2.708,-0.01,-0.2517,0.2076,1.248,1.964,-9.485,-0.024309,0.009081,-0.144727
611,1710361898.2023654,13.075541496276855,41.068,65.074,2.287,-0.0144,-0.2367,0.2016,1.157,1.517,-8.966,-0.027519,0.009909,-0.125938
612,1710361898.227404,13.100580215454102,40.496,65.065,1.751,-0.009,-0.2507,0.2065,1.025,1.66,-9.166,-0.003747,-0.016669,-0.189324
613,1710361898.2526634,13.125839471817017,39.975,65.068,1.276,-0.01,-0.2547,0.2032,0.966,1.526,-9.572,0.002997,0.014478,-0.132847
614,1710361898.2773724,13.150548458099365,39.486,65.123,0.875,-0.01,-0.2547,0.2065,0.753,1.289,-9.576,0.039318,0.044113,-0.147185
615,1710361898.302403,13.175579071044922,39.125,65.159,0.628,-0.0127,-0.2477,0.2052,0.734,1.57,-9.679,0.076675,0.030488,-0.066773
616,1710361898.3278913,13.201067447662354,38.964,65.177,0.627,-0.0109,-0.2527,0.2108,1.19,1.203,-9.696,0.114078,-0.001906,-0.042056
617,1710361898.352368,13.225544214248657,38.721,65.21,0.582,-0.0109,-0.2517,0.2097,1.737,0.949,-10.247,0.117757,0.051242,-0.097169
618,1710361898.3785992,13.25177526473999,38.359,65.326,0.416,-0.0117,-0.2418,0.2095,1.696,1.162,-9.844,0.109961,0.097592,-0.114437
619,1710361898.4022722,13.275448322296143,37.76,65.418,-0.0,-0.0127,-0.2497,0.2008,1.285,0.998,-9.659,0.085984,0.036448,-0.222722
620,1710361898.4272785,13.30045461654663,36.855,65.41,-0.724,-0.0125,-0.2348,0.205,0.819,1.692,-10.637,0.052324,-0.018902,-0.272185
621,1710361898.4530563,13.326232433319092,36.093,65.429,-1.349,-0.0118,-0.2517,0.2119,0.314,1.886,-11.105,0.049113,0.050609,-0.179602
622,1710361898.477437,13.350613117218018,35.536,65.518,-1.769,-0.0137,-0.2526,0.215,0.345,0.809,-10.79,0.067812,0.070314,-0.180364
623,1710361898.502177,13.37535309791565,34.455,65.529,-2.656,-0.0118,-0.2497,0.2107,0.038,0.38,-10.781,0.059742,-0.02675,-0.407446
624,1710361898.5283353,13.401511430740356,32.742,65.366,-4.154,-0.0078,-0.2339,0.2042,-0.846,1.215,-11.68,0.030081,-0.107801,-0.540534
625,1710361898.5522225,13.425398588180542,31.072,65.199,-5.673,-0.0082,-0.2527,0.2143,-1.074,1.751,-12.574,-0.014211,-0.02041,-0.444674
626,1710361898.578212,13.451388120651245,29.771,65.25,-6.95,-0.0045,-0.2538,0.2123,-0.609,0.933,-11.666,-0.116126,0.133915,-0.343111
627,1710361898.6021485,13.475324630737305,28.531,65.394,-8.296,-0.0033,-0.242,0.2101,-0.479,0.212,-9.789,-0.162916,0.140975,-0.349806
628,1710361898.6279755,13.50115156173706,27.257,65.426,-9.694,-0.0024,-0.239,0.2046,-0.226,0.141,-8.919,-0.159833,0.043898,-0.374937
629,1710361898.6529467,13.526122808456421,26.095,65.338,-10.887,-0.0063,-0.2508,0.2111,-0.306,0.835,-9.061,-0.05251,-0.014562,-0.300301
630,1710361898.6779711,13.551147222518921,25.221,65.207,-11.699,-0.0026,-0.2549,0.2136,0.051,0.009,-9.402,0.006412,-0.059346,-0.287132
631,1710361898.702898,13.576074123382568,24.001,64.983,-12.825,0.0011,-0.2549,0.2061,0.115,0.676,-9.757,-0.035989,-0.081179,-0.427935
632,1710361898.7279224,13.601098537445068,22.647,64.733,-14.154,0.001,-0.2579,0.2117,-0.142,1.523,-9.522,-0.087558,-0.063712,-0.410612
633,1710361898.7538505,13.627026557922363,21.663,64.563,-15.137,0.002,-0.253,0.2084,0.03,1.544,-9.321,-0.048761,-0.01193,-0.252959
634,1710361898.7778528,13.651028871536255,21.04,64.507,-15.746,0.0048,-0.2521,0.2052,0.684,0.817,-9.156,-0.025671,0.026595,-0.173583
635,1710361898.803791,13.676967144012451,20.345,64.451,-16.421,0.003,-0.252,0.2062,0.876,0.694,-8.648,-0.057048,0.001404,-0.24643
636,1710361898.8279085,13.701084613800049,19.554,64.294,-17.217,0.0057,-0.258,0.2098,0.682,1.23,-8.913,-0.036233,-0.034594,-0.24219
637,1710361898.8573077,13.730483770370483,18.964,64.171,-17.772,0.0078,-0.2403,0.2064,0.586,1.498,-9.353,-0.021439,-0.024622,-0.159164
638,1710361898.8778899,13.751065969467163,18.65,64.131,-18.097,0.0078,-0.2373,0.2063,0.807,1.012,-9.077,-0.026483,0.014829,-0.074251
639,1710361898.9028296,13.776005744934082,18.399,64.086,-18.33,0.0047,-0.259,0.2119,1.082,0.543,-8.758,0.012613,-0.024378,-0.102849
640,1710361898.9278378,13.801013946533203,18.005,63.913,-18.665,0.0075,-0.2591,0.2121,0.84,1.332,-9.112,0.016966,-0.099514,-0.153275
641,1710361898.9543724,13.827548503875732,17.773,63.705,-18.798,0.0085,-0.2561,0.2088,0.997,1.078,-9.392,0.066047,-0.120667,-0.109556
642,1710361898.9781332,13.851309299468994,17.56,63.449,-18.921,0.0093,-0.2591,0.2111,1.151,1.408,-9.966,0.033865,-0.148561,-0.12189
643,1710361899.0028088,13.875984907150269,17.477,63.254,-18.974,0.0085,-0.2561,0.2132,1.069,1.887,-10.198,-0.005859,-0.104968,-0.018559
644,1710361899.0280328,13.901208877563477,17.395,63.128,-19.106,0.0094,-0.2552,0.21,1.317,0.837,-10.158,-0.069439,-0.058973,-0.112907
645,1710361899.053886,13.927062034606934,16.932,62.929,-19.662,0.0093,-0.2591,0.2111,0.736,1.754,-10.179,-0.105473,-0.092553,-0.203204
646,1710361899.0778131,13.950989246368408,16.728,62.726,-19.995,0.0139,-0.2622,0.2081,0.458,2.591,-10.428,-0.103071,-0.122068,-0.027278
647,1710361899.102741,13.975917100906372,17.018,62.588,-19.832,0.0113,-0.2572,0.1969,0.937,2.156,-10.865,-0.06269,-0.112465,0.114173
648,1710361899.1277678,14.000943899154663,17.615,62.479,-19.388,0.0093,-0.2611,0.21,1.361,1.311,-10.83,-0.048723,-0.150413,0.167769
649,1710361899.1527278,14.025903940200806,18.16,62.318,-18.91,0.0111,-0.2641,0.2091,1.406,1.084,-11.549,0.02095,-0.158391,0.091367
650,1710361899.1776583,14.05083441734314,18.428,62.133,-18.663,0.0122,-0.2522,0.2057,0.8,1.263,-12.119,-0.012789,-0.131046,0.008303
651,1710361899.2027156,14.075891733169556,18.437,61.993,-18.706,0.0121,-0.2612,0.2047,0.311,1.743,-11.662,-0.041819,-0.061446,-0.044406
652,1710361899.22766,14.100836038589478,18.443,61.969,-18.735,0.0103,-0.2591,0.2068,-0.35,2.365,-11.428,-0.017083,0.026726,0.046241
653,1710361899.2526305,14.1258065700531,18.755,62.2,-18.412,0.0092,-0.267,0.2046,-0.28,1.394,-10.599,0.04981,0.169684,0.167967
654,1710361899.2776012,14.150777339935303,18.966,62.47,-18.202,0.0055,-0.2679,0.2088,-0.261,0.971,-9.554,-0.012135,0.148632,0.095118
655,1710361899.3030007,14.17617678642273,18.946,62.662,-18.284,0.0028,-0.2629,0.2096,-0.055,0.504,-9.117,-0.063573,0.13687,-0.014184
656,1710361899.327842,14.20101809501648,18.479,62.78,-18.825,0.0037,-0.2659,0.2075,-0.296,0.782,-8.688,-0.098585,0.112591,-0.162733
657,1710361899.3538768,14.227052927017212,17.93,62.838,-19.416,0.0027,-0.2698,0.2119,-0.742,1.126,-8.653,-0.044697,0.080965,-0.137069
658,1710361899.3778865,14.251062631607056,17.408,62.753,-19.898,0.0018,-0.2669,0.2151,-0.902,0.745,-8.937,-0.002276,-0.046302,-0.216067
659,1710361899.4024374,14.27561354637146,16.736,62.49,-20.488,0.0056,-0.265,0.2065,-0.933,1.057,-9.2,0.017247,-0.125881,-0.299363
660,1710361899.4277742,14.300950288772583,16.065,62.079,-21.046,0.0083,-0.27,0.1991,-1.067,2.341,-9.665,0.019816,-0.219946,-0.277702
661,1710361899.452498,14.325674057006836,15.88,61.735,-21.153,0.0092,-0.268,0.2123,-0.371,2.709,-10.077,0.057425,-0.160426,-0.047234
662,1710361899.477882,14.351058006286621,16.11,61.578,-20.866,0.0074,-0.268,0.2122,0.597,1.957,-9.312,0.055059,-0.117803,0.056678
663,1710361899.502416,14.37559199333191,16.361,61.464,-20.577,0.0073,-0.269,0.2144,1.243,1.352,-8.997,0.036857,-0.094535,0.034135
664,1710361899.5276756,14.400851726531982,16.355,61.317,-20.578,0.0083,-0.267,0.2111,1.463,1.433,-8.937,-0.023043,-0.087897,-0.079953
665,1710361899.5525644,14.425740480422974,16.111,61.172,-20.799,0.0101,-0.271,0.2124,1.285,2.141,-8.741,-0.002822,-0.051168,-0.120318
666,1710361899.5783293,14.451505422592163,15.943,61.07,-20.97,0.0092,-0.271,0.2145,1.318,2.034,-9.038,-0.018449,-0.02781,-0.058187
667,1710361899.60238,14.475556135177612,15.754,61.012,-21.161,0.0101,-0.271,0.2058,1.272,1.72,-8.977,-0.01543,-0.011316,-0.085873
668,1710361899.6273644,14.500540494918823,15.461,60.971,-21.431,0.011,-0.27,0.2026,1.248,1.688,-9.148,-0.012522,0.021003,-0.111704
669,1710361899.6553895,14.528565645217896,15.099,60.918,-21.768,0.0092,-0.269,0.2068,1.19,1.584,-9.315,-0.016993,0.012477,-0.13899
670,1710361899.6982155,14.571391582489014,14.765,60.878,-22.051,0.0073,-0.2719,0.2078,1.139,1.685,-9.649,0.029705,0.031205,-0.090941
671,1710361899.7094655,14.5826416015625,14.441,60.9,-22.241,0.0082,-0.272,0.2156,1.296,1.03,-10.106,0.070175,0.061806,-0.124636
672,1710361899.7468665,14.620042562484741,13.924,60.877,-22.644,0.0093,-0.2611,0.2133,0.832,1.609,-10.74,0.000532,0.051116,-0.179594
673,1710361899.7565699,14.629745960235596,13.372,60.894,-23.165,0.0055,-0.2699,0.2132,0.594,2.274,-10.996,-0.041692,0.109641,-0.157649
674,1710361899.7795613,14.652737379074097,12.929,61.036,-23.545,0.0073,-0.2729,0.2144,0.538,1.329,-10.522,0.040859,0.176206,-0.085269
675,1710361899.8021884,14.67536449432373,12.427,61.107,-23.823,0.0045,-0.2709,0.2219,0.323,0.992,-10.214,0.157276,0.053159,-0.17888
676,1710361899.827176,14.700352191925049,11.924,60.991,-23.987,0.0036,-0.2689,0.2185,0.615,1.658,-11.333,0.207016,-0.023361,-0.174845
677,1710361899.8531685,14.726344585418701,11.459,60.852,-24.027,0.0074,-0.264,0.222,0.741,1.23,-11.71,0.284307,-0.011791,-0.194746
678,1710361899.87807,14.751246213912964,10.841,60.741,-24.174,0.0046,-0.263,0.224,0.659,0.87,-12.051,0.252224,0.041184,-0.260568
679,1710361899.905281,14.778457164764404,9.942,60.616,-24.702,0.0028,-0.259,0.2282,-0.265,1.664,-11.745,0.125371,0.062218,-0.335358
680,1710361899.9281113,14.801287412643433,8.923,60.541,-25.504,0.0056,-0.263,0.223,-0.828,1.973,-11.274,0.00566,0.135343,-0.334664
681,1710361899.9522178,14.825393915176392,7.985,60.592,-26.412,0.0029,-0.254,0.2271,-1.158,1.851,-10.352,-0.090032,0.217217,-0.224991
682,1710361899.977955,14.851131200790405,7.077,60.682,-27.347,0.0009,-0.2629,0.226,-1.06,0.683,-8.795,-0.121912,0.146796,-0.300153
683,1710361900.003414,14.876590013504028,6.152,60.501,-28.384,0.0027,-0.2679,0.2294,-1.23,1.665,-8.828,-0.167971,-0.019298,-0.325651
684,1710361900.0279377,14.901113748550415,5.652,60.291,-28.965,0.0037,-0.261,0.2294,-0.794,1.344,-8.897,-0.051108,-0.060366,-0.156455
685,1710361900.052866,14.926042079925537,5.418,60.064,-29.187,0.0036,-0.2669,0.2273,0.069,0.649,-9.334,-0.004022,-0.118413,-0.166102
686,1710361900.0779321,14.95110821723938,5.012,59.795,-29.539,0.0046,-0.2689,0.2164,0.585,0.731,-9.372,-0.006905,-0.074745,-0.249935
687,1710361900.1038969,14.977072954177856,4.49,59.497,-30.009,0.0055,-0.265,0.2296,0.375,1.635,-9.038,-0.023958,-0.090521,-0.24444
688,1710361900.1282463,15.00142240524292,4.246,59.316,-30.252,0.0045,-0.2679,0.2274,0.544,1.756,-8.726,-0.018851,-0.047199,-0.070597
689,1710361900.1530952,15.026271343231201,4.244,59.23,-30.284,0.0054,-0.2699,0.2307,1.22,1.066,-8.516,-0.020795,-0.043633,-0.018603
690,1710361900.1779194,15.051095485687256,4.111,59.16,-30.42,0.0036,-0.2689,0.2328,1.755,0.189,-8.56,-0.023378,0.003103,-0.122707
691,1710361900.2029212,15.076097249984741,3.612,58.967,-30.912,0.0027,-0.2649,0.2305,1.257,0.91,-8.444,-0.057498,-0.042627,-0.262445
692,1710361900.2281816,15.101357698440552,3.101,58.702,-31.433,0.0035,-0.2758,0.2318,0.694,1.629,-8.886,-0.051766,-0.063704,-0.22772
693,1710361900.252825,15.126001119613647,2.782,58.486,-31.752,0.0066,-0.2541,0.2251,0.667,1.723,-9.271,-0.020837,-0.074664,-0.14392
694,1710361900.2779465,15.151122570037842,2.707,58.393,-31.774,0.0047,-0.259,0.2273,0.992,1.696,-9.785,0.055354,-0.010118,0.007599
695,1710361900.3036373,15.17681336402893,2.799,58.425,-31.63,0.0026,-0.2738,0.2295,1.654,0.603,-9.722,0.022353,-0.000879,0.028238
696,1710361900.328455,15.20163106918335,2.694,58.377,-31.744,-0.0011,-0.2737,0.2315,1.674,0.481,-9.83,-0.035598,-0.001351,-0.096717
697,1710361900.3527262,15.225902318954468,2.383,58.257,-32.082,0.0017,-0.2738,0.2305,1.03,1.262,-10.491,-0.058248,-0.003032,-0.154098
698,1710361900.3781266,15.251302719116211,2.043,58.137,-32.483,0.0009,-0.2629,0.2282,0.428,1.383,-10.463,-0.105571,-0.025545,-0.16617
699,1710361900.4031684,15.276344537734985,1.741,57.964,-32.906,0.0016,-0.2758,0.2273,0.002,1.515,-10.827,-0.12349,-0.041371,-0.150164
700,1710361900.4280212,15.301197290420532,1.481,57.741,-33.301,0.0007,-0.2777,0.2316,-0.018,1.187,-11.086,-0.118894,-0.098299,-0.187674
701,1710361900.4527462,15.32592225074768,1.184,57.416,-33.651,-0.0021,-0.2787,0.2326,0.137,1.144,-11.008,-0.026205,-0.138005,-0.240969
702,1710361900.4800432,15.353219270706177,0.905,57.007,-33.854,0.0017,-0.2738,0.2283,-0.094,1.601,-11.477,0.037443,-0.188669,-0.234813
703,1710361900.5026698,15.375845909118652,0.778,56.578,-33.854,-0.0002,-0.2728,0.2282,-0.617,2.18,-12.325,0.091103,-0.216186,-0.179352
704,1710361900.527666,15.400842189788818,0.831,56.29,-33.689,0.0029,-0.257,0.2271,-1.113,3.145,-12.243,0.084526,-0.133991,-0.033404
705,1710361900.552658,15.42583417892456,1.149,56.304,-33.27,0.0035,-0.2768,0.2296,-0.511,3.139,-11.527,0.113924,-0.005455,0.207369
706,1710361900.577598,15.450774192810059,1.628,56.58,-32.725,-0.0018,-0.2618,0.228,0.912,1.211,-9.945,0.074579,0.091228,0.243905
707,1710361900.6025372,15.47571325302124,1.785,56.758,-32.588,-0.0049,-0.2786,0.2302,1.211,0.13,-8.692,-0.038179,0.052979,0.008843
708,1710361900.6275456,15.50072169303894,1.377,56.626,-32.992,-0.0058,-0.2776,0.218,0.231,0.749,-8.72,-0.036778,-0.017523,-0.293027
709,1710361900.652761,15.5259370803833,0.682,56.329,-33.602,-0.0046,-0.2588,0.2234,-1.086,2.164,-9.398,-0.002245,-0.015703,-0.333751
710,1710361900.6775377,15.550713777542114,0.115,56.05,-34.006,-0.0048,-0.2746,0.229,-1.886,2.793,-9.055,0.067004,-0.080452,-0.256845
711,1710361900.7043343,15.577510356903076,-0.01,55.762,-34.017,-0.0058,-0.2796,0.2301,-1.798,3.695,-9.617,0.066395,-0.158637,-0.050931
712,1710361900.7275314,15.600707530975342,0.392,55.707,-33.534,-0.0039,-0.2727,0.2247,-0.382,2.398,-9.625,0.129,-0.083014,0.18693
713,1710361900.752518,15.625694036483765,0.882,55.79,-33.027,-0.0076,-0.2765,0.2267,0.949,1.239,-8.661,0.014017,-0.054876,0.173807
714,1710361900.7774363,15.650612354278564,1.236,55.807,-32.778,-0.0076,-0.2756,0.2311,1.645,0.492,-7.816,-0.062903,-0.071795,0.060314
715,1710361900.8047702,15.677946329116821,1.237,55.646,-32.911,-0.0104,-0.2785,0.2309,1.804,0.96,-7.716,-0.090409,-0.09098,-0.136873
716,1710361900.8274233,15.700599431991577,1.068,55.449,-33.122,-0.0085,-0.2755,0.2299,1.584,1.813,-7.572,-0.029918,-0.073429,-0.125359
717,1710361900.852422,15.725598096847534,0.928,55.279,-33.252,-0.0084,-0.2706,0.2222,1.544,1.401,-7.891,0.027321,-0.067506,-0.123215
718,1710361900.8774085,15.750584602355957,0.701,55.064,-33.359,-0.0104,-0.2745,0.2287,1.113,1.388,-8.63,0.073817,-0.066996,-0.173036
719,1710361900.9025612,15.775737285614014,0.367,54.904,-33.441,-0.0094,-0.2715,0.2265,0.598,1.806,-9.25,0.171844,0.022742,-0.155923
720,1710361900.927339,15.800515174865723,0.145,54.792,-33.414,-0.0123,-0.2764,0.2308,0.378,1.602,-9.376,0.138491,-0.04446,-0.103508
721,1710361900.9529536,15.826129674911499,0.069,54.661,-33.257,-0.0121,-0.2695,0.2274,0.492,1.607,-10.048,0.157998,-0.054446,-0.054123
722,1710361900.97771,15.850886106491089,-0.014,54.567,-33.095,-0.0111,-0.2646,0.2241,0.727,0.816,-10.023,0.172759,-0.030577,-0.091984
723,1710361901.0045536,15.877729654312134,-0.25,54.343,-33.058,-0.0101,-0.2586,0.2263,0.265,0.052,-9.799,0.139089,-0.131527,-0.232278
724,1710361901.0285382,15.901714324951172,-0.566,53.808,-33.102,-0.0102,-0.2606,0.2285,-0.898,1.378,-10.634,0.162848,-0.298731,-0.327362
725,1710361901.0532331,15.926409244537354,-0.638,53.247,-32.915,-0.0074,-0.2627,0.2287,-0.93,2.542,-11.95,0.175649,-0.276327,-0.15278
726,1710361901.0775023,15.95067834854126,-0.458,52.96,-32.543,-0.0045,-0.2519,0.2277,-0.148,1.201,-11.166,0.149578,-0.185435,-0.008755
727,1710361901.104243,15.977419137954712,-0.373,52.666,-32.196,-0.0037,-0.2608,0.2311,0.792,-0.329,-10.742,0.218026,-0.208062,-0.172061
728,1710361901.1281195,16.001295566558838,-0.777,51.999,-32.307,-0.0064,-0.2568,0.2298,0.676,0.815,-11.217,0.093803,-0.356392,-0.535843
729,1710361901.152489,16.025665044784546,-1.509,51.162,-32.781,0.0038,-0.258,0.2305,-0.127,2.962,-13.115,0.051644,-0.258034,-0.550384
730,1710361901.178059,16.05123519897461,-2.146,50.82,-33.221,0.0047,-0.257,0.225,-0.568,2.153,-13.515,0.011769,0.094408,-0.257212
731,1710361901.202195,16.075371026992798,-2.829,50.896,-33.808,0.0057,-0.2521,0.2272,-1.337,1.212,-11.952,-0.090265,0.262795,-0.201364
732,1710361901.2282805,16.10145664215088,-3.483,51.021,-34.575,0.0038,-0.259,0.2261,-1.846,0.496,-10.087,-0.227229,0.198911,-0.184072
733,1710361901.2544217,16.12759780883789,-3.917,51.063,-35.192,0.0019,-0.2589,0.2227,-1.42,-0.389,-9.214,-0.152892,0.101945,-0.101487
734,1710361901.2780316,16.15120768547058,-4.21,50.924,-35.525,-0.0008,-0.2559,0.2225,0.417,-2.11,-9.186,-0.040022,-0.067658,-0.277881
735,1710361901.3030345,16.176210641860962,-4.963,50.319,-36.154,0.0056,-0.26,0.2196,0.544,-0.099,-9.625,-0.039255,-0.178795,-0.627879
736,1710361901.3280525,16.201228618621826,-5.835,49.596,-36.883,0.0074,-0.2601,0.2253,-0.004,2.302,-10.346,-0.04882,-0.130718,-0.550639
737,1710361901.3534462,16.226622343063354,-6.462,49.235,-37.371,0.0093,-0.2601,0.2243,-0.078,2.59,-9.721,0.008391,0.032274,-0.275227
738,1710361901.3781729,16.251348972320557,-6.867,49.152,-37.706,0.0112,-0.2592,0.2211,0.272,2.117,-9.205,-0.03311,0.094014,-0.132962
739,1710361901.4029577,16.27613377571106,-7.178,49.234,-38.038,0.0085,-0.2502,0.2175,0.58,1.412,-8.475,-0.094301,0.150734,-0.045293
740,1710361901.4283862,16.301562309265137,-7.445,49.383,-38.37,0.0074,-0.263,0.2198,0.986,0.198,-8.028,-0.08566,0.163573,-0.038262
741,1710361901.4529836,16.326159715652466,-7.829,49.47,-38.796,0.0056,-0.259,0.2163,1.206,-0.281,-7.984,-0.114758,0.145686,-0.150442
742,1710361901.4782672,16.35144329071045,-8.375,49.368,-39.469,0.0056,-0.261,0.2153,1.037,0.487,-7.953,-0.217673,0.06146,-0.27529
743,1710361901.502947,16.376123189926147,-8.849,49.119,-40.145,0.0074,-0.264,0.2176,1.048,0.972,-8.821,-0.204308,-0.010612,-0.262106
744,1710361901.5279386,16.40111470222473,-9.187,49.006,-40.606,0.0047,-0.26,0.213,0.927,1.604,-9.766,-0.109644,0.064383,-0.087782
745,1710361901.5529509,16.426126956939697,-9.519,49.088,-41.007,0.0038,-0.258,0.2118,0.81,0.94,-10.729,-0.095707,0.167051,-0.096623
746,1710361901.5779378,16.45111393928528,-9.977,49.254,-41.432,0.0019,-0.2639,0.2129,0.362,1.497,-11.177,-0.037567,0.26881,-0.054023
747,1710361901.6050518,16.478227853775024,-10.37,49.554,-41.802,0.0,-0.2619,0.2116,-0.545,1.799,-10.371,-0.077465,0.237652,0.047464
748,1710361901.6278722,16.50104832649231,-10.497,49.771,-42.082,-0.0036,-0.2608,0.2092,-0.788,1.875,-10.606,-0.142198,0.106306,0.070083
749,1710361901.6527998,16.525975942611694,-10.357,50.001,-42.085,-0.0074,-0.2637,0.2068,-0.421,1.713,-10.826,-0.026268,0.070295,0.196889
750,1710361901.6778347,16.551010847091675,-10.171,50.181,-41.889,-0.0093,-0.2666,0.21,-0.237,0.55,-10.571,0.08544,0.004694,0.06833
751,1710361901.7027888,16.57596492767334,-10.262,50.06,-41.773,-0.0083,-0.2626,0.2045,-0.754,2.238,-10.871,0.133709,-0.053221,-0.140171
752,1710361901.729798,16.60297417640686,-10.347,49.926,-41.643,-0.0092,-0.2616,0.2132,-1.601,3.527,-10.545,0.157925,-0.035582,-0.022657
753,1710361901.754596,16.627772092819214,-10.104,50.065,-41.194,-0.0082,-0.2557,0.2088,-1.317,3.629,-10.405,0.180624,0.021352,0.248275
754,1710361901.7777853,16.65096139907837,-9.73,50.406,-40.634,-0.0128,-0.2566,0.2151,-0.492,1.963,-9.028,0.187053,0.067709,0.259769
755,1710361901.8027246,16.67590069770813,-9.385,50.498,-40.176,-0.0129,-0.2586,0.213,-0.679,1.249,-8.318,0.096141,-0.140995,0.08052
756,1710361901.8277037,16.7008798122406,-8.998,50.258,-39.717,-0.0139,-0.2625,0.2184,-1.253,2.139,-9.234,0.138728,-0.271776,0.024754
757,1710361901.852663,16.725839138031006,-8.5,50.027,-39.119,-0.0119,-0.2566,0.2053,-0.929,2.43,-10.075,0.141557,-0.237337,0.102424
758,1710361901.8787525,16.751928567886353,-7.889,50.01,-38.463,-0.0091,-0.2527,0.2153,-0.292,2.476,-9.866,0.126306,-0.135724,0.281579
759,1710361901.9026027,16.775778770446777,-7.175,50.2,-37.737,-0.0146,-0.2486,0.216,0.658,0.902,-9.153,0.10754,-0.070787,0.329477
760,1710361901.9275978,16.800773859024048,-6.695,50.328,-37.266,-0.0174,-0.2525,0.2159,1.098,-0.002,-8.213,0.048887,-0.067855,0.139959
761,1710361901.9525414,16.825717449188232,-6.508,50.229,-37.078,-0.0174,-0.2545,0.2159,0.923,0.833,-8.17,0.020766,-0.129878,-0.031169
762,1710361901.9775627,16.850738763809204,-6.465,50.027,-37.021,-0.0137,-0.2506,0.2161,0.821,1.345,-8.78,0.009884,-0.091537,-0.098502
763,1710361902.0025182,16.875694274902344,-6.508,49.879,-37.05,-0.0146,-0.2536,0.215,0.647,1.467,-9.113,-0.005389,-0.056904,-0.071095
764,1710361902.0275612,16.900737285614014,-6.631,49.741,-37.16,-0.0138,-0.2556,0.2162,0.751,1.385,-9.156,-0.018248,-0.028563,-0.121393
765,1710361902.0525782,16.92575430870056,-6.871,49.596,-37.354,-0.0145,-0.2427,0.2127,0.796,1.397,-9.393,-0.003536,-0.007917,-0.162971
766,1710361902.0775595,16.950735569000244,-7.157,49.471,-37.571,-0.0136,-0.2467,0.2139,0.78,1.68,-9.44,0.010086,0.01797,-0.13665
767,1710361902.1025016,16.975677728652954,-7.386,49.394,-37.704,-0.0155,-0.2496,0.2127,1.003,1.366,-9.862,0.03314,0.023696,-0.119309
768,1710361902.1275506,17.0007266998291,-7.649,49.35,-37.846,-0.0147,-0.2536,0.2161,1.081,1.19,-10.633,0.042569,0.088386,-0.112686
769,1710361902.1524568,17.025632858276367,-8.041,49.337,-38.123,-0.0164,-0.2476,0.2159,0.961,0.766,-10.433,-0.023568,0.093972,-0.190908
770,1710361902.1775184,17.050694465637207,-8.55,49.202,-38.583,-0.0183,-0.2505,0.2125,0.554,1.689,-10.627,-0.074009,0.065207,-0.248208
771,1710361902.2024593,17.07563543319702,-9.006,49.066,-39.037,-0.0144,-0.2377,0.2071,0.344,1.276,-10.727,-0.067852,0.04642,-0.213961
772,1710361902.227436,17.1006121635437,-9.339,48.882,-39.291,-0.0173,-0.2466,0.2103,0.262,1.277,-11.196,0.053559,-0.024323,-0.184631
773,1710361902.252397,17.12557315826416,-9.59,48.732,-39.257,-0.0155,-0.2466,0.2127,0.649,1.65,-11.804,0.196148,0.013654,-0.127053
774,1710361902.277423,17.150599002838135,-9.789,48.651,-39.086,-0.0164,-0.2496,0.2071,0.793,1.259,-11.638,0.233928,0.021254,-0.097786
775,1710361902.3023741,17.17555022239685,-9.993,48.62,-38.914,-0.0173,-0.2446,0.2191,0.882,1.291,-11.795,0.212448,0.072568,-0.089154
776,1710361902.327394,17.200570106506348,-10.384,48.613,-38.981,-0.0163,-0.2397,0.2125,0.495,0.692,-11.492,0.130037,0.138667,-0.206912
777,1710361902.3523812,17.225557327270508,-11.119,48.552,-39.423,-0.0182,-0.2436,0.2201,-0.46,1.29,-11.065,0.027138,0.210001,-0.325831
778,1710361902.3773453,17.250521421432495,-12.031,48.452,-40.164,-0.0182,-0.2426,0.2212,-1.508,1.31,-9.337,-0.096009,0.186313,-0.396219
779,1710361902.4024596,17.275635719299316,-12.747,48.199,-40.852,-0.0173,-0.2466,0.2202,-2.119,2.571,-9.346,-0.087464,0.048467,-0.298045
780,1710361902.427356,17.30053210258484,-12.991,48.128,-41.076,-0.0182,-0.2466,0.2081,-1.533,1.689,-8.942,0.004539,0.018414,-0.022674
781,1710361902.4551287,17.328304767608643,-12.945,48.018,-40.998,-0.0172,-0.2367,0.2124,0.007,-0.909,-8.991,0.037808,-0.126003,-0.085389
782,1710361902.479407,17.352583169937134,-13.141,47.618,-41.084,-0.0164,-0.2456,0.2181,0.655,-0.754,-9.043,0.002434,-0.174976,-0.381219
783,1710361902.502384,17.37556004524231,-13.554,46.976,-41.465,-0.0126,-0.2437,0.215,0.103,1.875,-8.779,-0.053396,-0.194517,-0.411732
784,1710361902.5283399,17.40151596069336,-13.708,46.581,-41.575,-0.0108,-0.2428,0.2173,0.05,2.475,-8.44,0.041203,-0.130997,-0.127139
785,1710361902.5531747,17.426350831985474,-13.564,46.468,-41.319,-0.0126,-0.2398,0.2204,0.491,1.947,-8.312,0.130794,-0.097123,0.067094
786,1710361902.580088,17.453263998031616,-13.287,46.43,-40.927,-0.0098,-0.2418,0.2184,1.306,0.774,-8.386,0.132357,-0.110599,0.055996
787,1710361902.6024094,17.475585460662842,-13.211,46.239,-40.754,-0.0107,-0.2388,0.2173,1.492,0.384,-8.728,0.038044,-0.131051,-0.137257
788,1710361902.628073,17.501249074935913,-13.377,45.921,-40.917,-0.0089,-0.2418,0.2174,0.657,1.468,-9.009,-0.081998,-0.093425,-0.223582
789,1710361902.6539726,17.527148723602295,-13.45,45.69,-41.12,-0.0062,-0.2429,0.2154,0.063,2.231,-8.646,-0.097941,-0.099413,-0.051847
790,1710361902.678052,17.551228046417236,-13.232,45.622,-41.054,-0.007,-0.2379,0.2142,0.543,1.557,-9.105,-0.04979,-0.115717,0.10528
791,1710361902.7044454,17.577621459960938,-12.896,45.632,-40.853,-0.0071,-0.2419,0.2153,1.219,0.513,-9.927,-0.022494,-0.084639,0.124467
792,1710361902.7285957,17.60177183151245,-12.686,45.65,-40.78,-0.0107,-0.2388,0.2162,1.108,0.585,-10.177,-0.086341,-0.050108,0.068055
793,1710361902.7543771,17.6275532245636,-12.559,45.645,-40.817,-0.0089,-0.2399,0.2119,1.011,0.975,-10.589,-0.09981,-0.037812,0.041769
794,1710361902.7781386,17.651314735412598,-12.493,45.69,-40.94,-0.0107,-0.2408,0.2151,0.969,1.073,-11.568,-0.126229,0.046167,0.038153
795,1710361902.8029842,17.67616033554077,-12.551,45.792,-41.211,-0.0105,-0.2269,0.2094,0.607,1.435,-11.176,-0.180292,0.084195,0.021385
796,1710361902.828282,17.7014582157135,-12.573,45.914,-41.444,-0.0145,-0.2427,0.2072,0.04,2.031,-10.71,-0.14039,0.068518,0.082047
797,1710361902.8532124,17.726388454437256,-12.367,46.092,-41.465,-0.0145,-0.2466,0.2105,0.26,2.068,-11.162,-0.08778,0.007697,0.212413
798,1710361902.8803248,17.753500938415527,-11.999,46.279,-41.213,-0.0173,-0.2436,0.2114,0.463,0.215,-11.235,0.035787,-0.052474,0.176096
799,1710361902.9029365,17.77611255645752,-11.826,46.192,-40.969,-0.0191,-0.2416,0.2124,-0.042,0.639,-12.136,0.090485,-0.110085,-0.061516
800,1710361902.9282346,17.801410675048828,-11.869,46.024,-40.895,-0.0181,-0.2386,0.2124,-0.48,1.465,-12.095,0.064971,-0.043353,-0.094883
801,1710361902.9529011,17.826077222824097,-11.894,46.07,-40.826,-0.0182,-0.2446,0.2103,-0.426,2.262,-11.552,0.05084,0.096412,0.109422
802,1710361902.9781277,17.851303815841675,-11.857,46.371,-40.713,-0.0218,-0.2385,0.199,0.297,0.686,-10.161,0.064562,0.181748,0.132103
803,1710361903.0028546,17.876030683517456,-12.06,46.567,-40.755,-0.0237,-0.2395,0.2121,0.329,0.381,-8.8,0.076616,0.14569,-0.066141
804,1710361903.0280886,17.901264667510986,-12.413,46.547,-40.922,-0.0266,-0.2454,0.2152,-0.08,0.687,-8.224,0.055883,0.073343,-0.183202
805,1710361903.0529575,17.926133632659912,-12.798,46.33,-41.108,-0.0247,-0.2434,0.2055,-0.658,1.161,-8.596,0.064717,-0.029109,-0.270531
806,1710361903.0782237,17.95139980316162,-13.167,45.961,-41.256,-0.0254,-0.2286,0.2096,-1.511,1.846,-8.891,0.086327,-0.11442,-0.314824
807,1710361903.1028416,17.976017713546753,-13.3,45.55,-41.304,-0.0219,-0.2425,0.2089,-1.797,3.12,-10.134,0.004469,-0.179111,-0.141821
808,1710361903.1280324,18.001208543777466,-13.133,45.447,-41.131,-0.0191,-0.2426,0.2157,-0.786,2.309,-9.752,0.036427,-0.085614,0.098885
809,1710361903.1526878,18.025863885879517,-12.912,45.399,-40.957,-0.0209,-0.2396,0.2144,0.648,0.494,-9.12,0.004883,-0.093575,-0.01813
810,1710361903.1780233,18.051199436187744,-12.985,45.179,-41.053,-0.0237,-0.2395,0.2121,1.348,0.454,-8.91,-0.067482,-0.091666,-0.196817
811,1710361903.2026489,18.075824975967407,-13.251,44.872,-41.366,-0.0199,-0.2317,0.2111,1.356,1.249,-8.656,-0.082786,-0.0511,-0.244794
812,1710361903.2280219,18.101197957992554,-13.532,44.616,-41.619,-0.0191,-0.2436,0.2113,1.234,1.371,-8.033,-0.023901,-0.05261,-0.222636
813,1710361903.2526407,18.125816822052002,-13.745,44.309,-41.783,-0.0173,-0.2436,0.2059,1.406,1.115,-8.583,0.009608,-0.09219,-0.230002
814,1710361903.277597,18.15077304840088,-14.073,43.927,-41.964,-0.0182,-0.2436,0.2146,1.422,0.903,-9.093,0.053505,-0.081804,-0.353317
815,1710361903.3026822,18.17585825920105,-14.517,43.487,-42.17,-0.0181,-0.2406,0.2124,0.974,2.183,-9.185,0.06396,-0.082856,-0.358324
816,1710361903.3279624,18.201138496398926,-14.853,43.122,-42.311,-0.0105,-0.2279,0.2062,1.14,1.987,-9.539,0.082517,-0.053971,-0.274976
817,1710361903.3525867,18.225762844085693,-15.18,42.883,-42.377,-0.0125,-0.2348,0.2116,1.232,1.509,-9.83,0.11363,0.011819,-0.232593
818,1710361903.3775427,18.25071883201599,-15.614,42.638,-42.51,-0.0135,-0.2387,0.2138,0.948,1.487,-10.104,0.115669,0.033945,-0.308247
819,1710361903.402858,18.276034116744995,-16.077,42.364,-42.669,-0.0135,-0.2397,0.2094,0.459,2.007,-10.211,0.086356,0.007564,-0.284543
820,1710361903.4277744,18.300950527191162,-16.448,42.181,-42.799,-0.0097,-0.2349,0.2162,0.204,1.956,-10.59,0.067277,0.084619,-0.184264
821,1710361903.4535291,18.32670521736145,-16.779,42.158,-42.887,-0.0135,-0.2368,0.2182,0.317,1.846,-10.299,0.122241,0.125212,-0.100429
822,1710361903.477466,18.350642204284668,-17.03,42.185,-42.824,-0.0152,-0.2308,0.218,0.364,0.555,-9.169,0.182584,0.040485,-0.111216
823,1710361903.502472,18.375648021697998,-17.139,41.884,-42.597,-0.0134,-0.2348,0.217,0.945,1.197,-10.657,0.206022,-0.197533,-0.211253
824,1710361903.5277655,18.400941610336304,-17.21,41.486,-42.379,-0.0124,-0.2259,0.2181,1.847,0.817,-12.918,0.160228,-0.099561,-0.236096
825,1710361903.5525043,18.42568039894104,-17.553,41.239,-42.373,-0.0133,-0.2289,0.2192,1.597,1.354,-12.105,0.164637,0.050968,-0.258231
826,1710361903.577839,18.45101499557495,-18.102,41.116,-42.458,-0.0133,-0.2279,0.2126,0.315,1.214,-11.871,0.211342,0.181812,-0.281554
827,1710361903.602415,18.47559118270874,-18.767,41.019,-42.59,-0.0114,-0.2249,0.2214,-1.46,1.601,-11.627,0.208042,0.189229,-0.29824
828,1710361903.6276102,18.500786304473877,-19.356,40.963,-42.755,-0.0142,-0.2209,0.2234,-2.263,1.824,-11.971,0.104381,0.199254,-0.219487
829,1710361903.6527715,18.52594757080078,-19.872,41.081,-43.025,-0.0179,-0.2238,0.2232,-2.024,0.935,-10.744,0.01119,0.262445,-0.094159
830,1710361903.6774683,18.550644397735596,-20.292,41.109,-43.449,-0.0198,-0.2247,0.2242,-1.331,-0.13,-8.763,-0.196515,0.06158,-0.219758
831,1710361903.7023406,18.57551670074463,-20.58,40.845,-43.893,-0.0178,-0.2198,0.2188,-0.813,0.844,-8.505,-0.133761,-0.055477,-0.201036
832,1710361903.7284675,18.601643562316895,-20.65,40.577,-44.055,-0.018,-0.2277,0.221,0.266,0.729,-8.283,-0.05985,-0.143036,-0.152521
833,1710361903.752394,18.625570058822632,-20.647,40.233,-44.108,-0.0179,-0.2238,0.221,1.037,0.679,-8.988,-0.019481,-0.160936,-0.192982
834,1710361903.7782028,18.651378870010376,-20.833,39.845,-44.262,-0.0142,-0.2269,0.2224,0.809,1.401,-8.674,-0.049833,-0.119281,-0.293502
835,1710361903.8023238,18.67549991607666,-21.004,39.477,-44.494,-0.0161,-0.2258,0.2222,0.308,2.705,-8.853,-0.094679,-0.099952,-0.179976
836,1710361903.8284242,18.701600313186646,-20.997,39.37,-44.589,-0.0162,-0.2327,0.2212,0.635,2.031,-8.608,-0.060909,-0.040835,0.004363
837,1710361903.8523684,18.725544452667236,-20.945,39.329,-44.639,-0.0143,-0.2308,0.2092,1.015,1.111,-8.675,-0.068398,-0.04175,-0.010648
838,1710361903.8783357,18.751511812210083,-20.932,39.255,-44.748,-0.0171,-0.2298,0.2189,0.847,0.677,-8.652,-0.083737,-0.043592,-0.053553
839,1710361903.9026906,18.775866746902466,-20.96,39.13,-44.903,-0.0171,-0.2327,0.2168,0.354,1.422,-8.736,-0.106505,-0.056692,-0.054044
840,1710361903.9284399,18.801615953445435,-20.842,39.084,-44.94,-0.0171,-0.2307,0.22,0.443,1.022,-8.788,-0.046458,-0.074813,0.063104
841,1710361903.9530985,18.826274633407593,-20.605,39.104,-44.82,-0.0179,-0.2268,0.2156,0.892,0.413,-9.335,-0.006206,-0.081979,0.115395
842,1710361903.978368,18.85154414176941,-20.343,39.102,-44.587,-0.0208,-0.2297,0.2198,1.19,0.286,-9.645,0.078979,-0.104128,0.085483
843,1710361904.0030591,18.876235246658325,-20.118,39.1,-44.298,-0.0189,-0.2307,0.2177,1.235,0.283,-10.107,0.116815,-0.070884,0.078503
844,1710361904.0283184,18.90149450302124,-19.958,39.044,-44.036,-0.0208,-0.2297,0.2198,1.05,0.35,-10.537,0.092782,-0.108223,0.001832
845,1710361904.0530703,18.926246404647827,-19.892,38.884,-43.94,-0.0208,-0.2326,0.2209,0.718,0.564,-11.05,0.005013,-0.100866,-0.092289
846,1710361904.0781882,18.951364278793335,-19.914,38.701,-43.977,-0.0226,-0.2316,0.2197,0.377,1.841,-11.535,-0.045228,-0.027986,-0.072672
847,1710361904.1030872,18.976263284683228,-19.88,38.739,-44.044,-0.0199,-0.2336,0.2199,0.672,1.862,-10.071,-0.064748,-0.000712,0.090028
848,1710361904.1283312,19.00150728225708,-19.632,38.787,-43.94,-0.0235,-0.2286,0.2207,1.278,0.751,-9.96,-0.001717,-0.104745,0.119668
849,1710361904.1530488,19.026224851608276,-19.346,38.745,-43.651,-0.0236,-0.2326,0.2218,1.869,0.085,-10.426,0.11667,-0.130233,0.041245
850,1710361904.1780264,19.051202535629272,-19.263,38.601,-43.355,-0.0245,-0.2296,0.2174,1.401,0.872,-10.93,0.188205,-0.090074,-0.059427
851,1710361904.202977,19.07615303993225,-19.246,38.475,-43.106,-0.0233,-0.2157,0.2206,0.897,0.993,-11.273,0.14419,-0.07312,-0.06414
852,1710361904.2280433,19.101219415664673,-19.277,38.326,-42.964,-0.0226,-0.2276,0.2197,0.325,0.973,-11.829,0.092118,-0.041357,-0.111685
853,1710361904.2530925,19.1262686252594,-19.499,38.217,-43.025,-0.0252,-0.2167,0.2183,-0.666,1.837,-11.772,0.021551,0.061726,-0.151704
854,1710361904.2779956,19.151171684265137,-19.778,38.199,-43.226,-0.0245,-0.2306,0.2229,-1.226,2.501,-11.144,-0.055725,0.118332,-0.08204
855,1710361904.3066993,19.179875373840332,-19.962,38.302,-43.482,-0.0282,-0.2305,0.216,-1.349,2.388,-10.454,-0.125861,0.128024,0.019557
856,1710361904.3280358,19.20121192932129,-20.105,38.503,-43.758,-0.03,-0.2284,0.217,-0.878,1.066,-9.859,-0.131761,0.168371,0.029542
857,1710361904.3554423,19.228618383407593,-20.329,38.588,-44.104,-0.0318,-0.2225,0.2179,-0.746,0.454,-9.06,-0.164457,0.095114,-0.105246
858,1710361904.3781633,19.251339435577393,-20.566,38.477,-44.479,-0.0338,-0.2333,0.2179,-1.074,1.142,-8.718,-0.133786,-0.001456,-0.153363
859,1710361904.4031696,19.27634572982788,-20.636,38.359,-44.622,-0.0357,-0.2392,0.2146,-1.363,2.006,-9.32,-0.033243,-0.036491,-0.018094
860,1710361904.4281914,19.30136752128601,-20.538,38.375,-44.535,-0.0365,-0.2322,0.2155,-0.791,1.418,-9.19,0.050602,-0.013778,0.071095
861,1710361904.4531202,19.32629632949829,-20.396,38.457,-44.338,-0.0357,-0.2392,0.2146,-0.306,1.221,-8.594,0.067712,-0.020885,0.115725
862,1710361904.4779694,19.35114550590515,-20.204,38.465,-44.172,-0.0357,-0.2392,0.2179,0.18,0.478,-8.232,0.01952,-0.095507,0.040604
863,1710361904.5027552,19.37593126296997,-20.042,38.347,-44.022,-0.0366,-0.2382,0.2156,0.388,0.915,-8.363,0.033469,-0.131695,-0.005707
864,1710361904.528087,19.401262998580933,-19.903,38.179,-43.855,-0.0365,-0.2273,0.2166,0.711,0.908,-8.624,0.06835,-0.144441,-0.049082
865,1710361904.552862,19.426038026809692,-19.802,37.943,-43.709,-0.0357,-0.2372,0.2178,1.041,1.291,-9.171,0.053974,-0.156503,-0.089617
866,1710361904.5780292,19.451205253601074,-19.778,37.672,-43.643,-0.0356,-0.2313,0.2211,1.248,1.574,-9.634,0.017942,-0.121459,-0.13751
867,1710361904.6027133,19.475889444351196,-19.823,37.457,-43.643,-0.0356,-0.2333,0.2189,1.345,1.677,-9.793,0.021759,-0.055523,-0.115638
868,1710361904.6280355,19.501211643218994,-19.923,37.331,-43.662,-0.0348,-0.2412,0.2179,1.188,1.769,-9.888,0.027705,-0.006387,-0.0756
869,1710361904.6527045,19.525880575180054,-20.054,37.304,-43.698,-0.0375,-0.2362,0.2166,1.31,1.17,-10.083,0.035691,0.067312,-0.069695
870,1710361904.678004,19.551180124282837,-20.249,37.331,-43.775,-0.0384,-0.2352,0.2155,0.974,1.52,-9.858,0.018134,0.100386,-0.055261
871,1710361904.702852,19.5760281085968,-20.443,37.393,-43.856,-0.0385,-0.2381,0.2155,0.895,1.217,-9.979,0.029087,0.111406,-0.050785
872,1710361904.7279177,19.601093769073486,-20.671,37.442,-43.971,-0.0421,-0.2311,0.2141,0.806,1.007,-10.274,0.003958,0.11839,-0.078712
873,1710361904.7526302,19.62580633163452,-20.943,37.507,-44.143,-0.0422,-0.239,0.2185,0.542,0.931,-9.721,-0.010134,0.135368,-0.062801
874,1710361904.7776027,19.650778770446777,-21.159,37.526,-44.259,-0.0449,-0.237,0.2194,0.445,0.138,-9.637,0.034791,0.056315,-0.104212
875,1710361904.8027925,19.675968647003174,-21.312,37.427,-44.238,-0.0431,-0.24,0.2174,0.45,1.044,-10.653,0.097213,-0.002811,-0.098276
876,1710361904.8275464,19.700722455978394,-21.395,37.356,-44.119,-0.0449,-0.235,0.215,0.713,0.591,-10.936,0.134295,9.6e-05,-0.06806
877,1710361904.8525867,19.725762844085693,-21.523,37.275,-44.002,-0.044,-0.236,0.2162,0.799,0.133,-11.335,0.127951,0.01713,-0.120254
878,1710361904.8780496,19.75122570991516,-21.82,37.082,-44.023,-0.0468,-0.2389,0.2204,0.273,-0.271,-11.357,0.097759,0.013853,-0.302451
879,1710361904.9025218,19.775697946548462,-22.337,36.695,-44.228,-0.0431,-0.237,0.2119,-0.822,1.04,-11.453,0.046559,0.014597,-0.416743
880,1710361904.9278257,19.80100178718567,-22.86,36.322,-44.511,-0.0421,-0.2341,0.2196,-1.61,1.997,-11.174,-0.003108,0.02624,-0.351201
881,1710361904.9526024,19.825778484344482,-23.232,36.092,-44.768,-0.043,-0.2291,0.2118,-1.443,1.538,-10.382,-0.036806,0.042748,-0.216366
882,1710361904.9778385,19.851014614105225,-23.493,35.875,-44.952,-0.044,-0.236,0.2129,-0.747,1.236,-9.37,-0.013226,-0.038483,-0.207829
883,1710361905.0025342,19.875710248947144,-23.589,35.59,-45.021,-0.0431,-0.236,0.2053,-0.007,1.108,-9.041,-0.001565,-0.132208,-0.161465
884,1710361905.0274081,19.90058422088623,-23.558,35.257,-44.971,-0.0413,-0.2401,0.2175,0.472,0.758,-9.158,0.034014,-0.199313,-0.170683
885,1710361905.0524983,19.925674438476562,-23.554,34.802,-44.897,-0.0394,-0.2361,0.2154,0.469,1.431,-9.61,0.054182,-0.230081,-0.247839
886,1710361905.078581,19.951757192611694,-23.595,34.383,-44.864,-0.0385,-0.2381,0.2144,0.408,1.713,-9.823,0.025255,-0.152432,-0.2132
887,1710361905.1025023,19.97567844390869,-23.619,34.086,-44.859,-0.0327,-0.2274,0.2124,0.187,2.091,-9.423,0.006947,-0.119969,-0.102514
888,1710361905.1285915,20.00176763534546,-23.511,33.964,-44.787,-0.0358,-0.2441,0.2146,0.677,1.204,-9.195,0.001861,-0.089121,0.020866
889,1710361905.1524422,20.025618314743042,-23.392,33.965,-44.685,-0.0348,-0.2372,0.2124,1.146,0.52,-9.176,0.041578,-0.00788,0.06298
890,1710361905.1784723,20.051648378372192,-23.383,33.931,-44.624,-0.0357,-0.2382,0.2135,1.385,-0.187,-8.702,0.028131,-0.046436,-0.087228
891,1710361905.2033126,20.076488733291626,-23.521,33.665,-44.685,-0.0358,-0.2422,0.2157,1.253,0.036,-9.075,0.007025,-0.088276,-0.251051
892,1710361905.2284672,20.101643323898315,-23.723,33.285,-44.783,-0.0348,-0.2392,0.2146,0.829,1.365,-9.442,0.001548,-0.109888,-0.248171
893,1710361905.254961,20.12813711166382,-23.809,33.063,-44.806,-0.0348,-0.2382,0.2124,0.966,1.102,-9.717,0.024236,-0.050495,-0.090881
894,1710361905.27834,20.15151619911194,-23.833,32.968,-44.799,-0.032,-0.2403,0.2115,1.224,0.595,-9.858,0.009748,-0.021994,-0.064965
895,1710361905.307622,20.180798053741455,-23.949,32.891,-44.848,-0.0338,-0.2343,0.2102,1.324,0.426,-9.847,0.008851,0.030554,-0.107686
896,1710361905.3284795,20.201655626296997,-24.162,32.787,-44.97,-0.0338,-0.2382,0.2114,1.148,0.961,-9.964,-0.010993,0.043134,-0.146229
897,1710361905.353135,20.226311206817627,-24.406,32.737,-45.118,-0.0348,-0.2412,0.2125,1.105,1.217,-10.382,-0.023679,0.101722,-0.117424
898,1710361905.3783424,20.251518487930298,-24.672,32.708,-45.381,-0.0348,-0.2412,0.2136,0.941,1.43,-10.397,-0.141666,0.092676,-0.129816
899,1710361905.403185,20.276360988616943,-24.925,32.649,-45.788,-0.0367,-0.2421,0.208,0.909,1.593,-10.569,-0.203706,0.079457,-0.129484
900,1710361905.4284487,20.30162477493286,-25.158,32.669,-46.179,-0.0355,-0.2283,0.2024,0.82,2.143,-10.653,-0.169405,0.136897,-0.033567
901,1710361905.4530692,20.326245307922363,-25.263,32.91,-46.44,-0.0386,-0.2461,0.2068,1.258,2.057,-10.35,-0.134533,0.169343,0.14682
902,1710361905.4782562,20.35143232345581,-25.21,33.3,-46.573,-0.0431,-0.241,0.2032,1.997,0.676,-9.816,-0.08532,0.15516,0.23439
903,1710361905.503092,20.37626814842224,-25.151,33.54,-46.591,-0.0432,-0.2489,0.2021,2.042,0.132,-10.492,-0.013479,0.051229,0.076347
904,1710361905.5283763,20.401552438735962,-25.183,33.566,-46.673,-0.047,-0.2498,0.203,0.778,1.159,-11.343,-0.078388,0.01259,-0.024589
905,1710361905.5546806,20.42785668373108,-25.187,33.493,-46.767,-0.0458,-0.2379,0.1986,-0.353,0.904,-11.996,-0.027295,-0.04923,-0.054814
906,1710361905.5781207,20.45129680633545,-25.274,33.432,-46.755,-0.046,-0.2498,0.1987,-0.649,1.354,-12.92,0.046064,0.046275,-0.073908
907,1710361905.6030085,20.476184606552124,-25.496,33.477,-46.884,-0.0486,-0.2349,0.1994,-0.642,2.208,-11.216,-0.022593,0.149713,-0.036103
908,1710361905.6280353,20.501211404800415,-25.726,33.586,-47.088,-0.0488,-0.2468,0.1996,-0.448,1.879,-9.161,-0.091557,0.122528,-0.054269
909,1710361905.6531005,20.52627658843994,-25.876,33.618,-47.308,-0.0517,-0.2556,0.2028,-0.267,1.37,-8.485,-0.077194,0.056363,-0.03826
910,1710361905.678211,20.551387071609497,-26.06,33.588,-47.459,-0.0516,-0.2527,0.1995,-0.303,0.808,-8.325,-0.021374,0.046904,-0.121115
911,1710361905.703833,20.577009201049805,-26.256,33.371,-47.604,-0.0517,-0.2566,0.2028,-0.682,1.036,-8.179,-0.032282,-0.056453,-0.221918
912,1710361905.7279825,20.601158618927002,-26.36,33.022,-47.688,-0.0489,-0.2527,0.1985,-1.118,1.432,-8.701,-0.002831,-0.142084,-0.209533
913,1710361905.753135,20.62631106376648,-26.359,32.665,-47.631,-0.048,-0.2557,0.2019,-0.944,1.514,-9.289,0.05812,-0.169225,-0.164178
914,1710361905.7786357,20.651811838150024,-26.331,32.374,-47.509,-0.0443,-0.2568,0.2033,-0.419,1.251,-9.222,0.101853,-0.122321,-0.120842
915,1710361905.8032322,20.676408290863037,-26.288,32.08,-47.396,-0.0405,-0.2529,0.2013,-0.055,1.327,-8.645,0.011026,-0.193583,-0.147804
916,1710361905.8279543,20.701130390167236,-26.215,31.731,-47.363,-0.0423,-0.2479,0.1978,0.418,1.092,-8.727,-0.008183,-0.193802,-0.149215
917,1710361905.8530877,20.726263761520386,-26.19,31.323,-47.386,-0.0415,-0.2529,0.2012,0.679,0.691,-8.94,-0.036969,-0.19757,-0.244478
918,1710361905.8779812,20.75115728378296,-26.276,30.781,-47.484,-0.0387,-0.254,0.2036,0.405,1.48,-8.764,-0.04439,-0.240559,-0.346442
919,1710361905.9028273,20.77600336074829,-26.334,30.159,-47.618,-0.0332,-0.2581,0.1974,0.362,2.466,-9.427,-0.093509,-0.275364,-0.319109
920,1710361905.9280953,20.801271438598633,-26.294,29.666,-47.685,-0.0323,-0.2581,0.1931,0.815,1.95,-9.998,-0.024423,-0.215534,-0.19918
921,1710361905.9527833,20.82595944404602,-26.304,29.303,-47.658,-0.0295,-0.2582,0.1944,1.341,1.552,-10.062,0.034332,-0.133889,-0.194707
922,1710361905.9779983,20.851174354553223,-26.37,28.983,-47.649,-0.0295,-0.2572,0.1998,1.701,1.33,-10.01,0.019645,-0.119144,-0.200983
923,1710361906.0027766,20.87595272064209,-26.487,28.621,-47.707,-0.0266,-0.2523,0.1956,1.928,0.889,-10.574,-0.007112,-0.108459,-0.268591
924,1710361906.0277474,20.900923490524292,-26.758,28.3,-47.793,-0.0249,-0.2583,0.1968,1.678,1.437,-11.03,0.064382,0.029999,-0.259465
925,1710361906.0542896,20.927465677261353,-27.123,28.13,-47.808,-0.0267,-0.2572,0.1901,1.527,1.251,-11.173,0.135166,0.124949,-0.235394
926,1710361906.0780644,20.95124053955078,-27.584,28.083,-47.776,-0.0266,-0.2543,0.1901,1.33,1.437,-11.22,0.176551,0.217079,-0.194615
927,1710361906.1068773,20.980053424835205,-28.125,28.085,-47.812,-0.0266,-0.2523,0.2,1.29,0.701,-11.034,0.13431,0.270961,-0.26586
928,1710361906.130289,21.003465175628662,-28.797,27.979,-47.955,-0.0285,-0.2522,0.202,0.337,0.73,-10.063,0.104641,0.223658,-0.379686
929,1710361906.152714,21.025890111923218,-29.387,27.631,-48.069,-0.0285,-0.2512,0.1954,-0.62,1.878,-10.258,0.127302,0.033761,-0.428306
930,1710361906.1776285,21.050804615020752,-29.727,27.338,-47.946,-0.0257,-0.2513,0.1923,-0.616,2.548,-10.994,0.247543,0.020403,-0.185333
931,1710361906.2026594,21.075835466384888,-29.913,27.181,-47.63,-0.0266,-0.2513,0.1901,0.281,1.7,-10.703,0.274034,-0.008384,-0.172861
932,1710361906.2276433,21.10081934928894,-30.087,26.961,-47.358,-0.0265,-0.2454,0.2054,0.762,2.153,-10.681,0.220782,-0.015887,-0.186288
933,1710361906.2526476,21.125823736190796,-30.274,26.8,-47.155,-0.0264,-0.2394,0.2053,0.691,2.05,-10.09,0.19028,0.018574,-0.145223
934,1710361906.2779667,21.151142835617065,-30.444,26.561,-47.001,-0.0274,-0.2414,0.2064,0.179,1.865,-9.851,0.126075,-0.079482,-0.248836
935,1710361906.3026133,21.17578935623169,-30.636,26.215,-46.908,-0.0238,-0.2454,0.2066,-0.421,2.821,-10.316,0.128501,-0.053809,-0.227587
936,1710361906.327867,21.201043128967285,-30.751,26.104,-46.759,-0.0237,-0.2415,0.2077,-0.596,2.369,-10.23,0.140108,0.036577,-0.015267
937,1710361906.3525631,21.225739240646362,-30.785,26.191,-46.565,-0.0246,-0.2395,0.201,-0.295,0.362,-10.295,0.124843,0.066598,0.009346
938,1710361906.3787992,21.251975297927856,-30.942,26.108,-46.582,-0.0262,-0.2246,0.2051,-0.48,-0.327,-9.835,-0.03613,-0.003263,-0.1968
939,1710361906.4024901,21.27566623687744,-31.154,25.743,-46.841,-0.0228,-0.2415,0.2121,-1.015,0.577,-9.6,-0.148443,-0.119548,-0.292012
940,1710361906.4278224,21.30099844932556,-31.238,25.428,-47.039,-0.0238,-0.2444,0.211,-0.922,0.876,-9.98,-0.074196,-0.083827,-0.114953
941,1710361906.4525084,21.325684547424316,-31.228,25.378,-47.012,-0.0228,-0.2425,0.2045,-0.331,-0.345,-9.15,0.061933,-0.016363,0.004679
942,1710361906.4780078,21.351183891296387,-31.21,25.207,-46.862,-0.02,-0.2386,0.2112,-0.064,-0.659,-8.974,0.113041,-0.154474,-0.145633
943,1710361906.5024986,21.375674724578857,-31.224,24.756,-46.732,-0.0191,-0.2416,0.2091,0.06,0.257,-9.723,0.078539,-0.219839,-0.270714
944,1710361906.5286286,21.40180468559265,-31.246,24.316,-46.666,-0.0144,-0.2397,0.2115,-0.002,1.366,-9.845,0.018184,-0.185353,-0.185486
945,1710361906.5524254,21.425601482391357,-31.187,24.041,-46.668,-0.0145,-0.2457,0.2105,0.373,1.095,-9.573,-0.033417,-0.13546,-0.086418
946,1710361906.5794463,21.452622413635254,-31.175,23.856,-46.699,-0.0144,-0.2397,0.2148,0.649,1.01,-9.287,-0.024793,-0.077104,-0.096381
947,1710361906.6024454,21.475621461868286,-31.218,23.666,-46.798,-0.0154,-0.2417,0.2093,0.799,0.771,-9.352,-0.087321,-0.060344,-0.130389
948,1710361906.628665,21.501841068267822,-31.308,23.476,-47.006,-0.0136,-0.2467,0.2117,0.681,0.59,-8.83,-0.138553,-0.04271,-0.138599
949,1710361906.652415,21.525591135025024,-31.393,23.236,-47.238,-0.0154,-0.2436,0.2049,0.586,0.479,-8.463,-0.13389,-0.098821,-0.166074
950,1710361906.6782265,21.55140256881714,-31.456,22.924,-47.425,-0.0108,-0.2477,0.2119,0.617,0.641,-8.996,-0.110395,-0.132648,-0.191179
951,1710361906.703203,21.57637906074524,-31.462,22.626,-47.564,-0.0117,-0.2437,0.2052,0.694,0.71,-9.409,-0.08533,-0.128048,-0.128836
952,1710361906.7297459,21.602921962738037,-31.449,22.389,-47.637,-0.0099,-0.2458,0.2064,0.923,0.702,-9.537,-0.043381,-0.120339,-0.112903
953,1710361906.7531724,21.6263484954834,-31.433,22.177,-47.666,-0.0071,-0.2458,0.2011,1.252,0.668,-10.084,-0.022702,-0.095438,-0.100049
954,1710361906.7781959,21.651371955871582,-31.451,22.002,-47.726,-0.0088,-0.2339,0.2031,1.234,0.678,-10.362,-0.055444,-0.060922,-0.101023
955,1710361906.8031628,21.67633891105652,-31.509,21.822,-47.839,-0.0089,-0.2428,0.2053,1.029,0.958,-10.54,-0.064058,-0.051966,-0.124806
956,1710361906.8284936,21.701669692993164,-31.573,21.665,-47.958,-0.0053,-0.2498,0.2057,1.169,1.004,-10.962,-0.085168,-0.036067,-0.099996
957,1710361906.8531656,21.726341724395752,-31.699,21.553,-48.17,-0.0081,-0.2518,0.2077,1.327,1.182,-11.124,-0.13284,0.051216,-0.10744
958,1710361906.8781626,21.751338720321655,-31.866,21.528,-48.476,-0.009,-0.2507,0.2087,0.902,1.853,-10.459,-0.193399,0.076731,-0.071996
959,1710361906.903165,21.776341199874878,-31.946,21.571,-48.789,-0.0097,-0.2368,0.2008,0.609,2.201,-10.369,-0.196736,0.053987,0.043153
960,1710361906.928601,21.801777124404907,-31.906,21.709,-48.971,-0.0109,-0.2537,0.2032,0.49,0.638,-10.326,-0.08656,0.031342,0.084468
961,1710361906.9533114,21.82648754119873,-31.854,21.708,-48.988,-0.0147,-0.2585,0.2019,-0.049,1.342,-10.471,0.004262,-0.074005,-0.001584
962,1710361906.9781427,21.851318836212158,-31.68,21.611,-48.891,-0.0138,-0.2595,0.2041,-0.613,1.96,-11.266,0.026723,-0.158846,0.061654
963,1710361907.0037885,21.876964569091797,-31.399,21.616,-48.763,-0.0138,-0.2575,0.2008,-0.157,1.788,-11.95,0.009002,-0.103878,0.1568
964,1710361907.028074,21.90125012397766,-31.168,21.775,-48.683,-0.0147,-0.2585,0.2008,0.24,1.635,-11.296,-0.016316,0.006128,0.195901
965,1710361907.0531037,21.9262797832489,-30.998,21.988,-48.688,-0.0165,-0.2545,0.2028,0.464,1.659,-10.112,-0.07204,0.006987,0.166926
966,1710361907.078043,21.951219081878662,-30.844,22.12,-48.766,-0.0147,-0.2605,0.1997,0.301,1.974,-9.935,-0.099571,-0.014435,0.116359
967,1710361907.1046903,21.977866411209106,-30.728,22.312,-48.802,-0.0193,-0.2594,0.2016,-0.005,2.215,-10.275,-0.018638,0.078951,0.185206
968,1710361907.1285417,22.001717805862427,-30.647,22.696,-48.74,-0.023,-0.2593,0.1992,-0.065,1.671,-9.862,0.038044,0.167192,0.252006
969,1710361907.1546423,22.02781844139099,-30.614,23.124,-48.673,-0.0268,-0.2622,0.2012,-0.446,1.518,-9.266,0.020119,0.174746,0.227493
970,1710361907.1779835,22.051159620285034,-30.594,23.502,-48.638,-0.0304,-0.2591,0.202,-0.581,0.924,-9.107,0.018025,0.159756,0.187588
971,1710361907.2029057,22.0760817527771,-30.627,23.752,-48.618,-0.0323,-0.2611,0.1986,-0.66,0.315,-8.974,0.024129,0.107396,0.064156
972,1710361907.2282822,22.101458311080933,-30.751,23.762,-48.623,-0.0333,-0.262,0.2018,-0.765,-0.13,-8.941,0.023131,0.02404,-0.13136
973,1710361907.2528775,22.12605357170105,-30.941,23.475,-48.648,-0.0323,-0.2581,0.2008,-1.361,0.659,-9.271,0.049829,-0.082691,-0.275485
974,1710361907.2781782,22.15135431289673,-31.042,23.11,-48.579,-0.0322,-0.2551,0.2007,-1.875,2.423,-10.002,0.096092,-0.124322,-0.157599
975,1710361907.3028233,22.175999402999878,-30.964,23.038,-48.345,-0.0321,-0.2462,0.1962,-0.896,1.885,-9.867,0.154928,-0.0297,0.077267
976,1710361907.3278315,22.201007604599,-30.847,23.089,-48.121,-0.0313,-0.2571,0.1997,0.532,0.422,-9.221,0.089424,-0.03233,0.038391
977,1710361907.35279,22.225966215133667,-30.824,22.97,-48.038,-0.0332,-0.261,0.1996,1.05,0.443,-8.491,0.035466,-0.093024,-0.109878
978,1710361907.3778427,22.2510187625885,-30.866,22.676,-48.014,-0.0286,-0.2592,0.201,1.107,1.199,-8.595,0.014086,-0.135588,-0.202142
979,1710361907.404515,22.27769112586975,-30.914,22.346,-48.012,-0.0295,-0.2562,0.2009,1.098,1.497,-9.194,0.018086,-0.118916,-0.186309
