seq,stamp,elapsed_time,yaw,pitch,roll,mag_x,mag_y,mag_z,accel_x,accel_y,accel_z,gyro_x,gyro_y,gyro_z,mag_x_corr,mag_y_corr,mag_z_corr
88,1710361885.12682,0,134.801,86.553,106.642,0.177,-0.0681,0.2589,0.957,0.639,-10.125,0.044654,-0.069487,-0.184477,0.252135364371673,-0.0182002252785272,-0.0357375096570368
89,1710361885.15179,0.0249631404876709,136.019,86.811,107.923,0.1742,-0.0661,0.2686,1.227,0.185,-9.728,0.035219,0.022594,-0.197138,0.249335364371673,-0.0162002252785272,-0.0260375096570368
90,1710361885.17685,0.0500221252441406,139.219,87.127,111.142,0.1752,-0.0651,0.2697,1.085,0.178,-8.867,0.008581,0.039242,-0.277506,0.250335364371673,-0.0152002252785272,-0.0249375096570368
91,1710361885.20177,0.0749456882476807,142.712,87.539,114.618,0.1779,-0.0692,0.2699,0.619,0.808,-8.769,-0.021123,-0.034197,-0.30296,0.253035364371673,-0.0193002252785272,-0.0247375096570369
92,1710361885.2268,0.0999751091003418,145.335,87.92,117.222,0.177,-0.0652,0.2687,0.457,0.545,-9.148,-0.00055,-0.054094,-0.251663,0.252135364371673,-0.0153002252785272,-0.0259375096570368
93,1710361885.25176,0.124932289123535,148.703,88.252,120.626,0.1761,-0.0632,0.2676,0.329,0.539,-9.331,0.042014,-0.040117,-0.231684,0.251235364371673,-0.0133002252785272,-0.0270375096570368
94,1710361885.27758,0.150755882263184,151.32,88.561,123.309,0.1779,-0.0662,0.2688,0.388,0.555,-9.393,0.046064,-0.091033,-0.194801,0.253035364371673,-0.0163002252785272,-0.0258375096570369
95,1710361885.30197,0.175150632858276,151.204,88.857,123.257,0.177,-0.0632,0.2698,0.545,0.689,-9.568,0.042152,-0.115275,-0.150824,0.252135364371673,-0.0133002252785272,-0.0248375096570368
96,1710361885.32869,0.201868295669556,146.166,89.11,118.27,0.1771,-0.0602,0.2654,0.825,0.826,-9.656,0.027185,-0.153312,-0.095461,0.252235364371673,-0.0103002252785272,-0.0292375096570368
97,1710361885.35165,0.224828958511353,132.124,89.321,104.221,0.179,-0.0583,0.2677,1.279,0.682,-10.072,-0.013299,-0.164001,-0.082884,0.254135364371673,-0.00840022527852724,-0.0269375096570368
98,1710361885.37794,0.251116991043091,117.97,89.458,90.056,0.1807,-0.0643,0.2679,1.319,0.706,-10.135,0.004756,-0.10517,-0.077398,0.255835364371673,-0.0144002252785272,-0.0267375096570368
99,1710361885.40176,0.27493691444397,103.165,89.558,75.255,0.1799,-0.0553,0.2644,1.122,0.636,-10.433,0.001217,-0.060294,-0.087042,0.255035364371673,-0.00540022527852724,-0.0302375096570368
100,1710361885.42757,0.300749778747559,79.434,89.679,51.511,0.1807,-0.0633,0.2646,0.738,0.746,-10.652,-0.025946,-0.061501,-0.140631,0.255835364371673,-0.0134002252785272,-0.0300375096570368
101,1710361885.45191,0.32508397102356,45.306,89.711,17.316,0.1798,-0.0613,0.2656,0.431,1.39,-10.646,-0.058181,-0.041288,-0.067319,0.254935364371673,-0.0114002252785272,-0.0290375096570368
102,1710361885.47748,0.350655794143677,48.227,89.659,20.187,0.1779,-0.0642,0.2666,0.629,0.897,-10.692,-0.00481,-0.004661,0.08004,0.253035364371673,-0.0143002252785272,-0.0280375096570368
103,1710361885.50426,0.377437114715576,70.481,89.539,42.493,0.1798,-0.0672,0.2667,1.03,0.388,-10.872,0.057948,-0.013578,0.165137,0.254935364371673,-0.0173002252785272,-0.0279375096570368
104,1710361885.5275,0.400677680969238,87.984,89.375,60.133,0.1816,-0.0663,0.2647,1.252,-0.221,-10.944,0.121133,0.046063,0.146449,0.256735364371673,-0.0164002252785272,-0.0299375096570368
105,1710361885.55189,0.425065279006958,94.655,89.264,66.969,0.1779,-0.0691,0.2612,1.207,-0.155,-11.02,0.108757,0.009743,0.061699,0.253035364371673,-0.0192002252785272,-0.0334375096570368
106,1710361885.57829,0.451470851898193,98.461,89.235,70.921,0.1788,-0.0682,0.2623,0.724,0.268,-10.977,0.100431,0.039427,0.016465,0.253935364371673,-0.0183002252785272,-0.0323375096570369
107,1710361885.6024,0.475580930709839,103.998,89.221,76.587,0.1761,-0.0671,0.2654,-0.105,0.75,-10.531,0.083728,0.032889,0.029182,0.251235364371673,-0.0172002252785272,-0.0292375096570368
108,1710361885.62748,0.500658512115479,107.635,89.177,80.352,0.1772,-0.0563,0.2621,-0.481,0.821,-10.428,0.097371,0.037769,0.036114,0.252335364371673,-0.00640022527852725,-0.0325375096570368
109,1710361885.65262,0.525798320770264,110.289,89.155,83.124,0.1751,-0.0701,0.2676,-0.611,0.982,-10.317,0.069627,0.022149,0.006267,0.250235364371673,-0.0202002252785272,-0.0270375096570368
110,1710361885.6774,0.550574541091919,112.754,89.183,85.638,0.177,-0.0652,0.2643,-0.838,1.555,-10.266,0.004,0.033095,-0.014522,0.252135364371673,-0.0153002252785272,-0.0303375096570369
111,1710361885.70263,0.5758056640625,116.255,89.197,89.057,0.1742,-0.0681,0.2642,-0.92,1.509,-9.8,-0.09719,0.043312,-0.003229,0.249335364371673,-0.0182002252785272,-0.0304375096570368
112,1710361885.72738,0.600557327270508,119.095,89.216,91.687,0.1724,-0.067,0.263,-0.867,1.296,-9.196,-0.175531,0.013592,-0.0248,0.247535364371673,-0.0171002252785272,-0.0316375096570368
113,1710361885.75266,0.62583589553833,116.309,89.246,88.63,0.1751,-0.0711,0.2676,-0.891,1.447,-8.88,-0.177223,-0.040987,-0.00601,0.250235364371673,-0.0212002252785272,-0.0270375096570368
114,1710361885.77737,0.650545597076416,111.823,89.22,83.955,0.1732,-0.075,0.2609,-0.964,0.904,-9.24,-0.099774,-0.02882,0.022519,0.248335364371673,-0.0251002252785272,-0.0337375096570368
115,1710361885.80273,0.675910949707031,104.214,89.198,76.26,0.1741,-0.075,0.2632,-1.129,0.666,-9.629,-0.040959,-0.104244,-0.004084,0.249235364371673,-0.0251002252785272,-0.0314375096570368
116,1710361885.8273,0.700473546981812,96.43,89.129,68.45,0.1742,-0.0671,0.2598,-0.734,0.526,-10.604,-0.007612,-0.052082,0.043683,0.249335364371673,-0.0172002252785272,-0.0348375096570369
117,1710361885.85243,0.725610733032227,98.163,89.062,70.156,0.1722,-0.0759,0.2609,-0.296,-0.202,-10.004,-0.035935,0.023567,0.055504,0.247335364371673,-0.0260002252785272,-0.0337375096570368
118,1710361885.87731,0.750490188598633,100.506,89.05,72.438,0.1722,-0.0799,0.2653,0.25,-1.332,-9.33,-0.048212,0.01752,-0.037492,0.247335364371673,-0.0300002252785272,-0.0293375096570369
119,1710361885.90223,0.775407075881958,90.163,89.267,61.967,0.1723,-0.068,0.2608,0.377,-1.284,-8.947,-0.119766,-0.07466,-0.279939,0.247435364371673,-0.0181002252785272,-0.0338375096570369
120,1710361885.92724,0.800411701202393,45.662,89.511,17.317,0.1732,-0.075,0.2576,0.272,-0.315,-8.701,-0.084171,-0.08462,-0.369162,0.248335364371673,-0.0251002252785272,-0.0370375096570368
121,1710361885.95232,0.825500249862671,-6.045,89.28,-34.46,0.1749,-0.08,0.2633,0.615,-0.312,-8.772,-0.032156,-0.096343,-0.409166,0.250035364371673,-0.0301002252785272,-0.0313375096570369
122,1710361885.97723,0.850408315658569,-26.769,88.652,-55.203,0.1787,-0.0791,0.2591,0.88,0.04,-8.863,-0.00945,-0.137828,-0.544704,0.253835364371673,-0.0292002252785272,-0.0355375096570368
123,1710361886.00276,0.875936031341553,-34.706,87.834,-63.139,0.1787,-0.0771,0.2613,0.964,0.579,-9.17,-0.00174,-0.147984,-0.602306,0.253835364371673,-0.0272002252785272,-0.0333375096570369
124,1710361886.02719,0.900368928909302,-38.523,86.92,-66.974,0.1806,-0.0712,0.2559,0.967,1.306,-9.648,-0.0279,-0.152837,-0.638785,0.255735364371673,-0.0213002252785272,-0.0387375096570368
125,1710361886.05231,0.925485610961914,-41.355,86.059,-69.807,0.1807,-0.0672,0.2569,0.897,2.074,-10.107,0.026972,-0.052001,-0.559595,0.255835364371673,-0.0173002252785272,-0.0377375096570368
126,1710361886.07713,0.950307369232178,-44.862,85.424,-73.185,0.1816,-0.0682,0.2559,0.952,1.745,-10.025,0.105487,0.074445,-0.441599,0.256735364371673,-0.0183002252785272,-0.0387375096570368
127,1710361886.10202,0.975192546844482,-48.066,84.842,-76.242,0.1816,-0.0673,0.2592,0.781,1.627,-10.076,0.083814,0.081356,-0.444139,0.256735364371673,-0.0174002252785272,-0.0354375096570368
128,1710361886.12705,1.00022888183594,-50.556,84.264,-78.62,0.1798,-0.0633,0.2634,0.46,1.721,-9.968,0.059729,0.060837,-0.419385,0.254935364371673,-0.0134002252785272,-0.0312375096570368
129,1710361886.15228,1.02546095848083,-52.384,83.715,-80.402,0.179,-0.0603,0.2523,0.439,1.796,-10.413,0.000686,0.077108,-0.382359,0.254135364371673,-0.0104002252785272,-0.0423375096570368
130,1710361886.17702,1.05019760131836,-54.306,83.236,-82.353,0.179,-0.0593,0.2479,0.559,1.238,-10.049,-0.041991,0.109553,-0.344421,0.254135364371673,-0.00940022527852724,-0.0467375096570368
131,1710361886.2022,1.07537412643433,-55.621,82.736,-83.705,0.1781,-0.0573,0.2599,0.393,1.007,-9.913,-0.018204,0.042772,-0.372353,0.253235364371673,-0.00740022527852724,-0.0347375096570368
132,1710361886.22701,1.10018920898438,-56.055,82.23,-84.099,0.1772,-0.0572,0.2511,0.102,1.395,-10.706,0.05348,-0.018381,-0.32406,0.252335364371673,-0.00730022527852724,-0.0435375096570368
133,1710361886.2522,1.12537884712219,-56.316,81.836,-84.213,0.1753,-0.0562,0.2564,0.58,0.779,-11.654,0.134512,0.041328,-0.248898,0.250435364371673,-0.00630022527852724,-0.0382375096570368
134,1710361886.27718,1.15035367012024,-57.105,81.486,-84.797,0.1745,-0.0502,0.2563,0.631,0.26,-11.221,0.123679,0.050635,-0.267211,0.249635364371673,-0.000300225278527244,-0.0383375096570369
135,1710361886.30229,1.17546653747559,-57.368,81.03,-84.897,0.1754,-0.0503,0.2597,0.192,0.246,-11.046,0.121035,-0.030894,-0.351327,0.250535364371673,-0.00040022527852724,-0.0349375096570368
136,1710361886.32726,1.20043277740479,-57.377,80.475,-84.66,0.1754,-0.0473,0.2607,-0.276,0.543,-11.373,0.20009,-0.030799,-0.403699,0.250535364371673,0.00259977472147276,-0.0339375096570368
137,1710361886.35221,1.22539067268372,-57.615,79.929,-84.62,0.1774,-0.0434,0.2509,-0.589,1.707,-11.375,0.172456,0.014231,-0.34272,0.252535364371673,0.00649977472147276,-0.0437375096570368
138,1710361886.37695,1.25013041496277,-58.466,79.585,-85.234,0.1746,-0.0443,0.2585,-0.543,1.596,-10.765,0.146362,0.145573,-0.191059,0.249735364371673,0.00559977472147276,-0.0361375096570368
139,1710361886.40189,1.27506709098816,-59.747,79.354,-86.339,0.1746,-0.0433,0.2519,-0.41,0.667,-9.127,0.066803,0.124779,-0.188581,0.249735364371673,0.00659977472147276,-0.0427375096570368
140,1710361886.42693,1.30010676383972,-59.856,78.986,-86.534,0.1755,-0.0424,0.2618,-0.627,0.711,-8.72,-0.140631,-0.07591,-0.292849,0.250635364371673,0.00749977472147276,-0.0328375096570369
141,1710361886.45185,1.32502841949463,-59.384,78.58,-86.255,0.1746,-0.0433,0.2584,-0.868,0.893,-9.391,-0.103328,-0.067056,-0.247996,0.249735364371673,0.00659977472147276,-0.0362375096570368
142,1710361886.47724,1.35041952133179,-59.065,78.292,-86.063,0.1764,-0.0434,0.2608,-0.624,0.568,-9.582,-0.077132,-0.049035,-0.169523,0.251535364371673,0.00649977472147276,-0.0338375096570369
143,1710361886.50212,1.37529110908508,-58.577,78.084,-85.694,0.1766,-0.0354,0.2541,-0.37,0.081,-9.577,-0.0762,-0.108424,-0.118908,0.251735364371673,0.0144997747214728,-0.0405375096570368
144,1710361886.52764,1.40081834793091,-57.649,77.838,-84.88,0.1783,-0.0434,0.2609,0.129,-0.969,-10.207,-0.061214,-0.171846,-0.223285,0.253435364371673,0.00649977472147276,-0.0337375096570368
145,1710361886.55202,1.42519378662109,-56.67,77.369,-84.045,0.1783,-0.0454,0.2565,0.101,0.437,-10.562,-0.101786,-0.170914,-0.329855,0.253435364371673,0.00449977472147275,-0.0381375096570368
146,1710361886.57681,1.44998741149902,-56.012,76.961,-83.572,0.1794,-0.0355,0.251,0.458,1.231,-9.938,-0.138287,-0.111567,-0.223963,0.254535364371673,0.0143997747214728,-0.0436375096570368
147,1710361886.60196,1.47513127326965,-55.755,76.735,-83.545,0.1783,-0.0404,0.2543,1.113,1.252,-9.639,-0.150063,0.00038,-0.093553,0.253435364371673,0.00949977472147276,-0.0403375096570368
148,1710361886.62883,1.50200510025024,-55.956,76.629,-83.931,0.1801,-0.0474,0.2479,1.596,0.461,-8.735,-0.133006,0.025586,-0.092135,0.255235364371673,0.00249977472147276,-0.0467375096570368
149,1710361886.65177,1.52494883537292,-56.263,76.487,-84.388,0.1801,-0.0435,0.2577,1.298,0.812,-8.857,-0.078979,0.065893,-0.091989,0.255235364371673,0.00639977472147276,-0.0369375096570368
150,1710361886.67884,1.55201816558838,-56.624,76.361,-84.826,0.1801,-0.0464,0.2457,1.013,0.588,-8.891,-0.063477,0.035458,-0.100441,0.255235364371673,0.00349977472147276,-0.0489375096570368
151,1710361886.7017,1.57487940788269,-56.951,76.213,-85.212,0.1792,-0.0474,0.2555,0.598,0.39,-8.979,-0.041978,0.045833,-0.105978,0.254335364371673,0.00249977472147276,-0.0391375096570368
152,1710361886.72756,1.60073447227478,-57.077,76.073,-85.409,0.1754,-0.0483,0.2542,0.4,0.709,-9.484,-0.049621,0.017497,-0.067507,0.250535364371673,0.00159977472147275,-0.0404375096570369
153,1710361886.75197,1.62514972686768,-57.296,76.057,-85.674,0.1755,-0.0463,0.2541,0.67,0.229,-9.591,-0.030924,0.040964,-0.000673,0.250635364371673,0.00359977472147276,-0.0405375096570368
154,1710361886.77756,1.65073800086975,-57.595,76.047,-86.022,0.1763,-0.0513,0.2554,1.008,0.041,-9.614,-0.040188,0.056784,-0.01486,0.251435364371673,-0.00140022527852724,-0.0392375096570368
155,1710361886.8021,1.67527484893799,-57.836,75.956,-86.325,0.1744,-0.0522,0.2596,1.074,0.219,-9.578,-0.062536,0.027099,-0.090656,0.249535364371673,-0.00230022527852725,-0.0350375096570368
156,1710361886.82768,1.70085644721985,-57.928,75.784,-86.487,0.1737,-0.0413,0.2518,0.964,0.561,-10.777,-0.047233,0.041157,-0.131158,0.248835364371673,0.00859977472147275,-0.0428375096570368
157,1710361886.85275,1.72592520713806,-58.466,75.611,-87.085,0.1735,-0.0552,0.2596,0.397,0.921,-10.822,-0.079139,0.102078,-0.134731,0.248635364371673,-0.00530022527852724,-0.0350375096570368
158,1710361886.87792,1.75109386444092,-59.001,75.459,-87.79,0.1716,-0.0571,0.254,0.17,1.941,-10.345,-0.158814,0.076404,-0.070042,0.246735364371673,-0.00720022527852724,-0.0406375096570368
159,1710361886.90244,1.77561140060425,-59.421,75.525,-88.401,0.1708,-0.0511,0.2572,0.375,1.797,-10.079,-0.113147,0.073028,0.123164,0.245935364371673,-0.00120022527852724,-0.0374375096570368
160,1710361886.92827,1.80144953727722,-59.583,75.783,-88.697,0.1706,-0.0601,0.2551,0.816,0.941,-10.577,-0.099996,0.006766,0.185911,0.245735364371673,-0.0102002252785272,-0.0395375096570368
161,1710361886.95275,1.82593011856079,-59.456,75.964,-88.659,0.1697,-0.06,0.2583,0.968,0.353,-11.448,-0.036169,-0.02657,0.069495,0.244835364371673,-0.0101002252785272,-0.0363375096570369
162,1710361886.97747,1.85064625740051,-59.586,75.986,-88.83,0.1707,-0.0561,0.2551,0.67,0.878,-12.481,-0.035165,0.096205,0.005522,0.245835364371673,-0.00620022527852724,-0.0395375096570368
163,1710361887.00257,1.87574195861816,-60.534,76.05,-89.816,0.1669,-0.0649,0.2538,0.065,0.827,-11.811,-0.050736,0.190878,0.072626,0.242035364371673,-0.0150002252785272,-0.0408375096570368
164,1710361887.02749,1.90066528320312,-61.666,76.117,-90.947,0.1641,-0.0619,0.258,-0.469,0.215,-10.517,0.002568,0.153412,0.011589,0.239235364371673,-0.0120002252785272,-0.0366375096570368
165,1710361887.05286,1.92603516578674,-61.965,75.94,-91.221,0.165,-0.0629,0.2592,-0.498,0.744,-10.259,0.001103,-0.012409,-0.219145,0.240135364371673,-0.0130002252785272,-0.0354375096570368
166,1710361887.07744,1.95062017440796,-61.689,75.596,-90.985,0.166,-0.0619,0.2482,-0.772,2.56,-9.866,-0.032866,-0.044718,-0.207105,0.241135364371673,-0.0120002252785272,-0.0464375096570368
167,1710361887.10269,1.97586393356323,-61.597,75.456,-90.901,0.166,-0.0599,0.2592,-0.538,2.317,-9.378,0.025416,0.0117,-0.027112,0.241135364371673,-0.0100002252785272,-0.0354375096570368
168,1710361887.12743,2.00060844421387,-61.516,75.41,-90.781,0.1624,-0.0559,0.2567,-0.347,1.213,-8.614,0.014686,-0.066655,-0.067325,0.237535364371673,-0.00600022527852724,-0.0379375096570368
169,1710361887.15231,2.02548623085022,-60.672,75.24,-89.956,0.1669,-0.06,0.2571,-0.577,1.672,-9.251,0.014685,-0.188695,-0.136843,0.242035364371673,-0.0101002252785272,-0.0375375096570368
170,1710361887.17738,2.05056095123291,-59.544,75.087,-88.802,0.1678,-0.062,0.2549,-0.666,2.117,-9.832,0.050892,-0.203134,-0.069207,0.242935364371673,-0.0121002252785272,-0.0397375096570368
171,1710361887.20261,2.07578706741333,-58.919,75.106,-88.14,0.1679,-0.058,0.2593,-0.505,2.151,-9.776,0.019601,-0.055995,0.083023,0.243035364371673,-0.00810022527852725,-0.0353375096570369
172,1710361887.22735,2.10052847862244,-58.665,75.301,-87.925,0.1678,-0.0659,0.2561,0.031,0.719,-8.609,-0.040024,-0.046189,0.140942,0.242935364371673,-0.0160002252785272,-0.0385375096570368
173,1710361887.25226,2.12543821334839,-58.191,75.392,-87.551,0.1705,-0.069,0.2541,0.639,0.079,-8.384,-0.063513,-0.099112,0.014441,0.245635364371673,-0.0191002252785272,-0.0405375096570368
174,1710361887.27732,2.15049457550049,-57.572,75.303,-86.994,0.1705,-0.07,0.2508,0.691,-0.023,-8.38,-0.00402,-0.114905,-0.095594,0.245635364371673,-0.0201002252785272,-0.0438375096570368
175,1710361887.30258,2.1757550239563,-56.831,75.085,-86.265,0.1697,-0.064,0.2529,0.693,0.601,-8.685,0.003641,-0.158899,-0.166411,0.244835364371673,-0.0141002252785272,-0.0417375096570368
176,1710361887.32727,2.20044732093811,-56.155,74.814,-85.582,0.1715,-0.063,0.2519,0.982,0.869,-9.008,0.03379,-0.105922,-0.178698,0.246635364371673,-0.0131002252785272,-0.0427375096570368
177,1710361887.35256,2.22573494911194,-55.719,74.542,-85.088,0.1725,-0.0601,0.2519,1.261,0.685,-8.707,0.068085,-0.098441,-0.188089,0.247635364371673,-0.0102002252785272,-0.0427375096570368
178,1710361887.37726,2.25043725967407,-55.205,74.185,-84.453,0.1753,-0.0552,0.2488,1.273,0.932,-8.992,0.099522,-0.132875,-0.272744,0.250435364371673,-0.00530022527852724,-0.0458375096570368
179,1710361887.40214,2.27532052993774,-54.686,73.723,-83.84,0.1744,-0.0591,0.2487,0.953,1.404,-9.583,0.070724,-0.120228,-0.319963,0.249535364371673,-0.00920022527852724,-0.0459375096570368
180,1710361887.42718,2.30035209655762,-54.397,73.306,-83.436,0.1753,-0.0592,0.251,0.808,1.541,-10.19,0.10479,-0.060434,-0.249527,0.250435364371673,-0.00930022527852725,-0.0436375096570368
181,1710361887.45211,2.32528185844421,-54.289,73.007,-83.179,0.1753,-0.0582,0.2477,0.428,1.456,-10.318,0.091679,-0.047333,-0.18595,0.250435364371673,-0.00830022527852724,-0.0469375096570368
182,1710361887.47711,2.35028791427612,-54.134,72.711,-82.943,0.1762,-0.0572,0.2466,0.583,1.104,-10.819,0.051887,-0.045519,-0.218265,0.251335364371673,-0.00730022527852724,-0.0480375096570368
183,1710361887.50434,2.3775200843811,-54.154,72.319,-82.929,0.1753,-0.0592,0.2521,1.186,0.595,-10.863,0.002823,-0.017634,-0.316858,0.250435364371673,-0.00930022527852725,-0.0425375096570368
184,1710361887.52713,2.40030527114868,-54.265,71.782,-83.07,0.1754,-0.0522,0.2476,0.96,1.411,-10.591,-0.066318,-0.043705,-0.387964,0.250535364371673,-0.00230022527852725,-0.0470375096570368
185,1710361887.5524,2.4255747795105,-54.12,71.252,-83.025,0.1772,-0.0553,0.2445,0.564,1.286,-10.684,-0.024626,-0.097064,-0.34509,0.252335364371673,-0.00540022527852724,-0.0501375096570368
186,1710361887.57708,2.45025992393494,-53.87,70.864,-82.711,0.1764,-0.0473,0.2487,1.102,2.303,-12.201,0.114312,-0.033903,-0.182195,0.251535364371673,0.00259977472147276,-0.0459375096570368
187,1710361887.60197,2.47515058517456,-54.264,70.794,-82.822,0.1745,-0.0492,0.2475,1.446,1.381,-12.222,0.201954,0.154715,-0.007058,0.249635364371673,0.000699774721472757,-0.0471375096570368
188,1710361887.62708,2.50025510787964,-55.121,70.759,-83.354,0.1754,-0.0503,0.2498,1.126,0.073,-11.412,0.190471,0.2066,-0.10968,0.250535364371673,-0.00040022527852724,-0.0448375096570368
189,1710361887.65196,2.52514004707336,-56.057,70.406,-83.995,0.168,-0.0511,0.2515,-0.446,0.612,-11.188,0.129684,0.16945,-0.3577,0.243135364371673,-0.00120022527852724,-0.0431375096570368
190,1710361887.67703,2.5502016544342,-56.847,69.907,-84.639,0.1718,-0.0462,0.2572,-1.624,1.835,-11.239,0.039924,0.164651,-0.332873,0.246935364371673,0.00369977472147276,-0.0374375096570368
191,1710361887.70192,2.57509660720825,-57.652,69.584,-85.406,0.1689,-0.0501,0.2527,-1.877,1.967,-10.516,-0.032126,0.184363,-0.169687,0.244035364371673,-0.000200225278527241,-0.0419375096570369
192,1710361887.72807,2.60124230384827,-58.533,69.566,-86.27,0.1681,-0.0451,0.2537,-1.207,1.316,-9.722,-0.031924,0.234176,0.063032,0.243235364371673,0.00479977472147276,-0.0409375096570369
193,1710361887.75223,2.6254096031189,-59.448,69.778,-87.151,0.1635,-0.044,0.2534,0.171,-0.509,-7.975,0.001227,0.182145,0.125283,0.238635364371673,0.00589977472147276,-0.0412375096570368
194,1710361887.77796,2.65113282203674,-59.526,69.767,-87.221,0.1644,-0.0431,0.2556,0.818,-0.96,-8.676,-0.009423,-0.064932,-0.091928,0.239535364371673,0.00679977472147276,-0.0390375096570368
195,1710361887.80188,2.6750602722168,-59.077,69.409,-86.826,0.168,-0.0481,0.257,0.669,-0.121,-9.479,-0.018519,-0.138383,-0.337356,0.243135364371673,0.00179977472147276,-0.0376375096570368
196,1710361887.82691,2.70008969306946,-58.602,68.866,-86.454,0.1655,-0.0342,0.2534,0.048,1.668,-10.007,-0.075051,-0.120194,-0.348596,0.240635364371673,0.0156997747214728,-0.0412375096570368
197,1710361887.85215,2.72532153129578,-58.534,68.439,-86.484,0.1653,-0.0461,0.2535,-0.088,1.836,-9.495,-0.06922,0.013359,-0.256987,0.240435364371673,0.00379977472147276,-0.0411375096570368
198,1710361887.87779,2.75096774101257,-58.598,68.192,-86.684,0.1671,-0.0481,0.2438,-0.195,2.352,-8.953,-0.108435,0.013262,-0.094168,0.242235364371673,0.00179977472147276,-0.0508375096570368
199,1710361887.90184,2.77501273155212,-58.748,68.208,-86.894,0.1644,-0.0431,0.2556,0.349,1.047,-8.433,-0.015828,0.045814,0.050004,0.239535364371673,0.00679977472147276,-0.0390375096570368
200,1710361887.92682,2.80000019073486,-58.85,68.262,-87.03,0.1653,-0.047,0.2469,0.933,0.139,-8.48,-0.039823,0.02236,0.013403,0.240435364371673,0.00289977472147276,-0.0477375096570368
201,1710361887.9519,2.82508015632629,-58.913,68.171,-87.178,0.1663,-0.0411,0.248,1.174,-0.441,-8.148,-0.075458,-0.008611,-0.12984,0.241435364371673,0.00879977472147276,-0.0466375096570368
202,1710361887.97783,2.85100626945496,-58.713,67.845,-87.111,0.1671,-0.0501,0.2548,0.975,0.063,-8.372,-0.070699,-0.087261,-0.267023,0.242235364371673,-0.000200225278527241,-0.0398375096570368
203,1710361888.00178,2.87495946884155,-58.411,67.562,-86.863,0.1662,-0.0481,0.2492,0.851,1.023,-9.308,-0.000681,-0.076704,-0.113414,0.241335364371673,0.00179977472147276,-0.0454375096570368
204,1710361888.02761,2.90078258514404,-58.083,67.464,-86.554,0.1662,-0.05,0.2481,1.441,0.094,-10.249,0.000247,-0.085532,-0.058309,0.241335364371673,-0.000100225278527245,-0.0465375096570368
205,1710361888.0518,2.92497658729553,-58.019,67.324,-86.438,0.1689,-0.0501,0.2527,1.801,-0.01,-10.402,0.065134,0.005175,-0.11309,0.244035364371673,-0.000200225278527241,-0.0419375096570369
206,1710361888.07759,2.95076441764832,-58.191,67.159,-86.48,0.1662,-0.0461,0.2536,1.617,0.243,-11.044,0.078464,0.075599,-0.113532,0.241335364371673,0.00379977472147276,-0.0410375096570368
207,1710361888.10283,2.97600317001343,-58.607,66.966,-86.789,0.1661,-0.053,0.2536,1.097,0.244,-10.666,0.029927,0.109969,-0.173699,0.241235364371673,-0.00310022527852724,-0.0410375096570368
208,1710361888.12752,3.00069260597229,-59.044,66.663,-87.16,0.1635,-0.0411,0.2522,0.328,1.247,-10.392,0.021087,0.113368,-0.222922,0.238635364371673,0.00879977472147276,-0.0424375096570369
209,1710361888.15195,3.02512288093567,-59.354,66.409,-87.419,0.1635,-0.045,0.2468,0.113,1.895,-10.251,0.010224,0.055635,-0.124618,0.238635364371673,0.00489977472147276,-0.0478375096570368
210,1710361888.1778,3.05097699165344,-59.465,66.391,-87.501,0.1644,-0.047,0.2534,0.509,1.2,-10.454,0.019133,0.015539,0.041095,0.239535364371673,0.00289977472147276,-0.0412375096570368
211,1710361888.20292,3.07610058784485,-59.38,66.395,-87.371,0.1628,-0.0311,0.2499,0.79,0.436,-10.868,0.04522,-0.044904,-0.048803,0.237935364371673,0.0187997747214728,-0.0447375096570368
212,1710361888.22924,3.10241556167603,-59.063,66.161,-87.025,0.1644,-0.045,0.2556,0.476,0.785,-11.746,0.02564,-0.114893,-0.21872,0.239535364371673,0.00489977472147276,-0.0390375096570368
213,1710361888.25284,3.12601804733276,-58.875,65.801,-86.794,0.1653,-0.0461,0.2535,-0.373,0.947,-12.145,0.050691,-0.026016,-0.255224,0.240435364371673,0.00379977472147276,-0.0411375096570368
214,1710361888.27753,3.15070629119873,-58.96,65.42,-86.805,0.1635,-0.045,0.2446,-1.324,1.33,-11.358,0.040078,0.022226,-0.260629,0.238635364371673,0.00489977472147276,-0.0500375096570368
215,1710361888.30287,3.17604422569275,-59.024,65.172,-86.804,0.1653,-0.0451,0.2557,-1.694,2.115,-10.643,0.047467,0.012304,-0.094896,0.240435364371673,0.00479977472147276,-0.0389375096570369
216,1710361888.3275,3.20068049430847,-59.034,65.174,-86.714,0.1634,-0.047,0.2523,-0.873,1.416,-9.556,0.06092,-0.013875,0.037447,0.238535364371673,0.00289977472147276,-0.0423375096570368
217,1710361888.35274,3.22591781616211,-58.854,65.125,-86.512,0.1644,-0.0441,0.2545,0.137,0.111,-8.986,0.021489,-0.074521,-0.103152,0.239535364371673,0.00579977472147276,-0.0401375096570368
218,1710361888.37751,3.25068712234497,-58.396,64.738,-86.083,0.1654,-0.0431,0.2502,-0.105,0.315,-8.52,-0.009536,-0.212071,-0.360504,0.240535364371673,0.00679977472147276,-0.0444375096570369
219,1710361888.40279,3.27596592903137,-57.434,64.087,-85.267,0.1672,-0.0411,0.2503,-0.867,2.187,-9.425,-0.026829,-0.363249,-0.428818,0.242335364371673,0.00879977472147276,-0.0443375096570368
220,1710361888.42749,3.30066132545471,-56.56,63.706,-84.399,0.1718,-0.0442,0.2506,-0.737,3.753,-10.709,0.109596,-0.207379,-0.06959,0.246935364371673,0.00569977472147275,-0.0440375096570368
221,1710361888.45276,3.32593846321106,-56.194,63.89,-83.901,0.17,-0.0432,0.2373,0.25,2.231,-9.936,0.093862,-0.050267,0.220672,0.245135364371673,0.00669977472147276,-0.0573375096570368
222,1710361888.47741,3.35058546066284,-56.057,64.198,-83.681,0.1702,-0.0303,0.2437,1.177,0.614,-9.116,0.05485,0.003728,0.192587,0.245335364371673,0.0195997747214728,-0.0509375096570368
223,1710361888.50675,3.37992143630981,-56.026,64.333,-83.629,0.1709,-0.0442,0.2494,1.617,-0.234,-8.317,-0.011496,-0.009381,0.018612,0.246035364371673,0.00569977472147275,-0.0452375096570368
224,1710361888.52742,3.40059900283813,-55.972,64.204,-83.628,0.17,-0.0452,0.2483,1.431,0.222,-8.221,-0.028092,-0.011868,-0.134933,0.245135364371673,0.00469977472147276,-0.0463375096570368
225,1710361888.55327,3.42644858360291,-56.027,63.971,-83.672,0.1709,-0.0452,0.2527,1.015,0.679,-8.157,0.011475,-0.009811,-0.168411,0.246035364371673,0.00469977472147276,-0.0419375096570369
226,1710361888.57736,3.45053243637085,-55.991,63.726,-83.63,0.171,-0.0393,0.245,1.037,0.455,-8.731,0.022587,-0.032549,-0.179942,0.246135364371673,0.0105997747214728,-0.0496375096570368
227,1710361888.60232,3.47549223899841,-56.022,63.387,-83.568,0.1719,-0.0373,0.2439,1.127,0.441,-8.905,0.069452,-0.02474,-0.281529,0.247035364371673,0.0125997747214728,-0.0507375096570368
228,1710361888.62749,3.50066685676575,-55.989,62.927,-83.453,0.1719,-0.0413,0.2407,0.94,1.054,-9.006,0.060273,-0.063042,-0.324248,0.247035364371673,0.00859977472147275,-0.0539375096570368
229,1710361888.65227,3.52544856071472,-55.789,62.433,-83.206,0.1747,-0.0403,0.2463,1.158,1.099,-9.771,0.028339,-0.117697,-0.34492,0.249835364371673,0.00959977472147275,-0.0483375096570368
230,1710361888.6773,3.55048012733459,-55.618,61.888,-83.02,0.1738,-0.0373,0.2484,1.142,1.35,-10.857,0.025382,-0.062229,-0.374998,0.248935364371673,0.0125997747214728,-0.0462375096570368
231,1710361888.70256,3.57574081420898,-55.743,61.407,-83.091,0.1729,-0.0314,0.2461,0.859,1.966,-11.111,0.026132,0.046218,-0.299532,0.248035364371673,0.0184997747214728,-0.0485375096570368
232,1710361888.72895,3.60212993621826,-56.107,61.034,-83.42,0.172,-0.0323,0.2483,0.93,1.766,-11.024,-0.0353,0.115275,-0.267465,0.247135364371673,0.0175997747214728,-0.0463375096570368
233,1710361888.75248,3.62565112113953,-56.659,60.719,-83.951,0.1701,-0.0343,0.2438,0.863,1.905,-10.735,-0.028371,0.1952,-0.201672,0.245235364371673,0.0155997747214728,-0.0508375096570368
234,1710361888.77747,3.65064907073975,-57.257,60.483,-84.498,0.1692,-0.0343,0.2503,0.544,0.333,-9.794,0.008843,0.146432,-0.211077,0.244335364371673,0.0155997747214728,-0.0443375096570368
235,1710361888.80262,3.67579388618469,-57.461,60.094,-84.598,0.1682,-0.0362,0.2481,0.538,1.082,-10.884,0.067924,-0.014216,-0.296937,0.243335364371673,0.0136997747214728,-0.0465375096570368
236,1710361888.82714,3.70031261444092,-57.502,59.751,-84.522,0.1673,-0.0342,0.248,0.841,0.985,-11.8,0.09776,0.020359,-0.196468,0.242435364371673,0.0156997747214728,-0.0466375096570368
237,1710361888.85255,3.72572302818298,-57.752,59.5,-84.487,0.1655,-0.0352,0.2545,0.892,0.249,-11.759,0.208569,0.095502,-0.198958,0.240635364371673,0.0146997747214728,-0.0401375096570368
238,1710361888.8771,3.75027847290039,-58.121,59.114,-84.521,0.1665,-0.0263,0.2533,0.022,0.422,-11.909,0.182064,0.110867,-0.341252,0.241635364371673,0.0235997747214728,-0.0413375096570368
239,1710361888.90228,3.77545499801636,-58.558,58.574,-84.688,0.1648,-0.0223,0.2477,-1.226,1.59,-11.559,0.118225,0.14019,-0.394329,0.239935364371673,0.0275997747214728,-0.0469375096570368
240,1710361888.92734,3.80051207542419,-59.071,58.131,-85.031,0.1602,-0.0221,0.2353,-2.003,1.735,-10.271,0.025013,0.154658,-0.272618,0.235335364371673,0.0277997747214728,-0.0593375096570368
241,1710361888.95212,3.82529234886169,-59.35,57.81,-85.343,0.1601,-0.0222,0.2518,-2.046,1.151,-9.552,-0.09864,0.046894,-0.194377,0.235235364371673,0.0276997747214728,-0.0428375096570368
242,1710361888.97707,3.85024428367615,-59.313,57.602,-85.433,0.161,-0.0232,0.254,-1.608,0.78,-8.417,-0.056107,-0.08152,-0.110604,0.236135364371673,0.0266997747214728,-0.0406375096570368
243,1710361889.00445,3.87762546539307,-58.873,57.516,-85.026,0.1629,-0.0252,0.2454,-0.025,0.336,-8.689,0.071026,-0.203581,-0.013632,0.238035364371673,0.0246997747214728,-0.0492375096570368
244,1710361889.02732,3.90049195289612,-58.355,57.45,-84.414,0.1639,-0.0183,0.2487,0.96,0.222,-9.244,0.134803,-0.194452,-0.039514,0.239035364371673,0.0315997747214728,-0.0459375096570368
245,1710361889.05648,3.92965888977051,-57.926,57.309,-83.926,0.1647,-0.0262,0.2521,1.24,-0.101,-9.246,0.053005,-0.150218,-0.133867,0.239835364371673,0.0236997747214728,-0.0425375096570368
246,1710361889.07704,3.95022082328796,-57.611,56.956,-83.623,0.1647,-0.0282,0.2532,0.978,0.474,-8.865,0.018552,-0.141665,-0.275069,0.239835364371673,0.0216997747214728,-0.0414375096570369
247,1710361889.10196,3.97513151168823,-57.357,56.545,-83.369,0.1693,-0.0263,0.2502,0.57,1.205,-8.931,0.033655,-0.115533,-0.2403,0.244435364371673,0.0235997747214728,-0.0444375096570369
248,1710361889.12718,4.00035691261292,-57.11,56.294,-83.12,0.1694,-0.0234,0.2513,0.834,0.828,-9.371,0.019211,-0.08807,-0.12997,0.244535364371673,0.0264997747214728,-0.0433375096570368
249,1710361889.15189,4.02506637573242,-57.036,56.064,-83.079,0.1684,-0.0243,0.2457,0.831,0.421,-8.873,-0.033715,-0.045151,-0.18114,0.243535364371673,0.0255997747214728,-0.0489375096570368
250,1710361889.18316,4.0563325881958,-56.946,55.784,-83.084,0.1675,-0.0233,0.2468,0.636,0.402,-8.986,-0.071697,-0.052472,-0.188952,0.242635364371673,0.0265997747214728,-0.0478375096570368
251,1710361889.20232,4.0754988193512,-56.789,55.439,-83.104,0.1704,-0.0184,0.2436,0.573,0.033,-8.925,-0.138148,-0.122988,-0.27303,0.245535364371673,0.0314997747214728,-0.0510375096570368
252,1710361889.22692,4.10009622573853,-56.5,55.042,-83.058,0.1676,-0.0204,0.2445,0.362,0.973,-9.309,-0.122955,-0.151704,-0.213096,0.242735364371673,0.0294997747214728,-0.0501375096570368
253,1710361889.25218,4.12535548210144,-56.199,54.847,-82.925,0.1724,-0.0106,0.2425,0.876,0.538,-9.744,-0.041862,-0.117584,-0.073414,0.247535364371673,0.0392997747214728,-0.0521375096570368
254,1710361889.2778,4.1509735584259,-56.082,54.752,-82.836,0.1712,-0.0224,0.247,1.649,-0.088,-9.924,0.004581,-0.018388,-0.062851,0.246335364371673,0.0274997747214728,-0.0476375096570368
255,1710361889.30221,4.1753888130188,-56.055,54.535,-82.862,0.1721,-0.0234,0.2449,1.576,0.166,-9.738,-0.075292,-0.049499,-0.209472,0.247235364371673,0.0264997747214728,-0.0497375096570368
256,1710361889.32702,4.20020079612732,-55.864,54.12,-82.928,0.1722,-0.0185,0.247,1.043,0.641,-10.175,-0.188109,-0.136247,-0.314135,0.247335364371673,0.0313997747214728,-0.0476375096570368
257,1710361889.35219,4.22536826133728,-55.748,53.714,-83.011,0.174,-0.0255,0.2439,0.342,1.046,-11.239,-0.067114,-0.009901,-0.241466,0.249135364371673,0.0243997747214728,-0.0507375096570368
258,1710361889.37771,4.25088429450989,-55.877,53.409,-83.16,0.1703,-0.0224,0.2436,-0.291,1.681,-11.007,-0.043858,0.030727,-0.193372,0.245435364371673,0.0274997747214728,-0.0510375096570368
259,1710361889.40266,4.27583956718445,-55.915,53.29,-83.311,0.1721,-0.0264,0.2449,-0.062,2.283,-10.638,-0.104258,-0.009542,0.006164,0.247235364371673,0.0234997747214728,-0.0497375096570368
260,1710361889.42765,4.30082869529724,-55.821,53.426,-83.348,0.1703,-0.0254,0.2371,1.157,1.038,-10.618,-0.053907,-0.023883,0.138182,0.245435364371673,0.0244997747214728,-0.0575375096570368
261,1710361889.45524,4.32842016220093,-55.737,53.599,-83.268,0.1714,-0.0125,0.2414,1.733,0.115,-11.024,0.034333,-0.009671,0.093578,0.246535364371673,0.0373997747214728,-0.0532375096570368
262,1710361889.47763,4.3508026599884,-55.763,53.569,-83.181,0.1702,-0.0283,0.2437,1.109,0.209,-11.079,0.094388,0.011396,-0.0889,0.245335364371673,0.0215997747214728,-0.0509375096570368
263,1710361889.50271,4.3758864402771,-55.83,53.346,-83.092,0.1703,-0.0264,0.2415,-0.15,1.198,-11.397,0.088846,0.008038,-0.184418,0.245435364371673,0.0234997747214728,-0.0531375096570368
264,1710361889.52838,4.40155220031738,-55.883,53.113,-83.012,0.1685,-0.0224,0.2468,-1.534,1.556,-11.463,0.090942,0.004996,-0.139176,0.243635364371673,0.0274997747214728,-0.0478375096570368
265,1710361889.55205,4.42522692680359,-55.912,52.897,-82.875,0.1722,-0.0215,0.247,-1.798,1.511,-11.175,0.11204,-0.013519,-0.175789,0.247335364371673,0.0283997747214728,-0.0476375096570368
266,1710361889.57773,4.45090341567993,-55.92,52.704,-82.785,0.1721,-0.0274,0.2471,-1.92,3.107,-10.192,0.030632,-0.015831,-0.06648,0.247235364371673,0.0224997747214728,-0.0475375096570368
267,1710361889.60265,4.4758288860321,-55.825,52.764,-82.731,0.1712,-0.0244,0.2426,-0.931,2.258,-9.26,-0.030657,-0.031018,0.101876,0.246335364371673,0.0254997747214728,-0.0520375096570368
268,1710361889.62758,4.50075125694275,-55.731,52.915,-82.697,0.1693,-0.0303,0.247,0.01,0.875,-8.391,-0.035255,-0.029826,0.088838,0.244435364371673,0.0195997747214728,-0.0476375096570368
269,1710361889.65265,4.52582550048828,-55.537,52.898,-82.571,0.1693,-0.0254,0.2491,-0.13,0.26,-8.131,-0.006698,-0.123923,-0.065353,0.244435364371673,0.0244997747214728,-0.0455375096570368
270,1710361889.67776,4.55093288421631,-55.104,52.636,-82.182,0.172,-0.0304,0.2461,-0.851,1.124,-9.075,0.055725,-0.237469,-0.184663,0.247135364371673,0.0194997747214728,-0.0485375096570368
271,1710361889.7051,4.57827234268188,-54.601,52.444,-81.675,0.1712,-0.0264,0.2427,-1.042,2.373,-10.273,0.076443,-0.200667,-0.027109,0.246335364371673,0.0234997747214728,-0.0519375096570368
272,1710361889.72755,4.60072183609009,-54.247,52.548,-81.282,0.1731,-0.0205,0.2416,-0.189,1.496,-9.989,0.070545,-0.092785,0.140828,0.248235364371673,0.0293997747214728,-0.0530375096570368
273,1710361889.75254,4.62571430206299,-53.986,52.735,-81.027,0.1712,-0.0264,0.2394,0.434,0.752,-8.936,0.003223,-0.100539,0.132716,0.246335364371673,0.0234997747214728,-0.0552375096570368
274,1710361889.77748,4.65065407752991,-53.704,52.794,-80.798,0.1739,-0.0304,0.2396,0.829,0.615,-8.514,0.009998,-0.113264,0.003725,0.249035364371673,0.0194997747214728,-0.0550375096570368
275,1710361889.8024,4.67557740211487,-53.444,52.719,-80.592,0.1739,-0.0304,0.244,0.658,1.669,-8.538,-0.019179,-0.117437,-0.02649,0.249035364371673,0.0194997747214728,-0.0506375096570368
276,1710361889.82743,4.70060110092163,-53.213,52.734,-80.426,0.1748,-0.0314,0.2375,0.841,1.457,-8.204,0.004962,-0.080114,0.045179,0.249935364371673,0.0184997747214728,-0.0571375096570368
277,1710361889.8524,4.7255711555481,-53.003,52.731,-80.225,0.1739,-0.0284,0.2429,0.806,1.337,-8.394,0.028139,-0.097844,-0.000686,0.249035364371673,0.0214997747214728,-0.0517375096570368
278,1710361889.87741,4.75058221817017,-52.792,52.669,-80.032,0.1748,-0.0324,0.2408,0.66,1.489,-8.793,0.019827,-0.085171,-0.033052,0.249935364371673,0.0174997747214728,-0.0538375096570368
279,1710361889.90236,4.77553486824036,-52.629,52.611,-79.851,0.1767,-0.0315,0.2387,0.267,1.865,-8.966,0.046915,-0.073395,-0.015219,0.251835364371673,0.0183997747214728,-0.0559375096570368
280,1710361889.92892,4.80209994316101,-52.475,52.632,-79.611,0.1757,-0.0344,0.2365,0.127,1.888,-9.516,0.108133,-0.042008,0.063051,0.250835364371673,0.0154997747214728,-0.0581375096570368
281,1710361889.95229,4.82546997070312,-52.325,52.708,-79.314,0.1766,-0.0344,0.2431,0.401,0.932,-9.859,0.120944,-0.065148,0.04242,0.251735364371673,0.0154997747214728,-0.0515375096570368
282,1710361889.97741,4.85058784484863,-52.108,52.71,-79.001,0.1776,-0.0325,0.2398,0.544,1.055,-10.441,0.078709,-0.101598,0.012175,0.252735364371673,0.0173997747214728,-0.0548375096570368
283,1710361890.00226,4.87543344497681,-51.944,52.727,-78.778,0.1776,-0.0325,0.2442,0.745,1.141,-10.981,0.056939,-0.02479,0.043418,0.252735364371673,0.0173997747214728,-0.0504375096570368
284,1710361890.02742,4.90059328079224,-51.968,52.792,-78.682,0.1747,-0.0374,0.2397,0.794,0.535,-10.705,0.092248,0.049353,0.038459,0.249835364371673,0.0124997747214728,-0.0549375096570368
285,1710361890.05224,4.92541694641113,-51.979,52.75,-78.541,0.1748,-0.0304,0.2407,0.449,-0.23,-10.679,0.114906,-0.040123,-0.090766,0.249935364371673,0.0194997747214728,-0.0539375096570368
286,1710361890.07719,4.95036864280701,-51.856,52.516,-78.252,0.1777,-0.0265,0.2376,0.191,0.562,-11.865,0.14317,-0.089285,-0.151836,0.252835364371673,0.0233997747214728,-0.0570375096570368
287,1710361890.1022,4.97537660598755,-51.765,52.345,-77.933,0.1739,-0.0314,0.2374,-0.076,0.41,-12.244,0.204484,-0.035938,-0.085546,0.249035364371673,0.0184997747214728,-0.0572375096570368
288,1710361890.12718,5.00035500526428,-51.757,52.18,-77.621,0.1758,-0.0295,0.2353,-0.15,0.381,-12.493,0.200803,-0.015904,-0.143302,0.250935364371673,0.0203997747214728,-0.0593375096570368
289,1710361890.1521,5.02527594566345,-51.933,51.923,-77.564,0.1759,-0.0235,0.2374,-0.535,0.842,-11.843,0.099034,0.072708,-0.207122,0.251035364371673,0.0263997747214728,-0.0572375096570368
290,1710361890.17758,5.05075454711914,-52.237,51.577,-77.755,0.174,-0.0235,0.2395,-1.027,0.646,-10.717,-0.019311,0.058005,-0.312273,0.249135364371673,0.0263997747214728,-0.0551375096570368
291,1710361890.20216,5.07533693313599,-52.418,51.09,-77.999,0.1712,-0.0254,0.2415,-1.706,1.333,-10.49,-0.097395,-0.024746,-0.348942,0.246335364371673,0.0244997747214728,-0.0531375096570368
292,1710361890.2271,5.10027241706848,-52.533,50.724,-78.209,0.1712,-0.0254,0.2405,-1.823,1.598,-9.966,-0.063788,0.014788,-0.185605,0.246335364371673,0.0244997747214728,-0.0541375096570368
293,1710361890.25207,5.12524485588074,-52.488,50.571,-78.242,0.1741,-0.0205,0.2406,-1.012,1.207,-9.881,-0.04638,-0.063599,-0.038886,0.249235364371673,0.0293997747214728,-0.0540375096570368
294,1710361890.27721,5.15039014816284,-52.351,50.563,-78.176,0.174,-0.0255,0.2373,0.172,-0.191,-9.865,-0.008216,-0.04856,0.01138,0.249135364371673,0.0243997747214728,-0.0573375096570368
295,1710361890.30288,5.17605805397034,-52.282,50.427,-78.131,0.1721,-0.0254,0.2405,0.434,-0.628,-9.478,-0.021693,-0.061549,-0.169715,0.247235364371673,0.0244997747214728,-0.0541375096570368
296,1710361890.32706,5.20023965835571,-52.217,50.062,-78.174,0.174,-0.0255,0.2417,0.255,0.567,-9.186,-0.092331,-0.081068,-0.272586,0.249135364371673,0.0243997747214728,-0.0529375096570368
297,1710361890.35222,5.22539448738098,-52.179,49.701,-78.314,0.175,-0.0225,0.2363,0.294,1.245,-8.8,-0.125558,-0.047626,-0.20149,0.250135364371673,0.0273997747214728,-0.0583375096570368
298,1710361890.3773,5.25048089027405,-52.264,49.554,-78.518,0.173,-0.0264,0.2373,0.571,0.831,-8.58,-0.065626,0.080931,-0.049021,0.248135364371673,0.0234997747214728,-0.0573375096570368
299,1710361890.40195,5.27512788772583,-52.451,49.511,-78.709,0.1739,-0.0294,0.2418,0.588,0.232,-7.622,-0.006215,0.087252,-0.048839,0.249035364371673,0.0204997747214728,-0.0528375096570368
300,1710361890.42717,5.30034613609314,-52.513,49.327,-78.704,0.1683,-0.0303,0.2414,0.282,0.172,-7.765,0.039501,-0.059579,-0.18459,0.243435364371673,0.0195997747214728,-0.0532375096570368
301,1710361890.45192,5.32509708404541,-52.396,49.038,-78.565,0.1703,-0.0254,0.2382,0.005,0.667,-8.808,0.036658,-0.092088,-0.168612,0.245435364371673,0.0244997747214728,-0.0564375096570368
302,1710361890.47698,5.35016083717346,-52.257,48.83,-78.41,0.1695,-0.0154,0.2347,0.1,0.796,-9.346,0.028133,-0.087747,-0.09943,0.244635364371673,0.0344997747214728,-0.0599375096570368
303,1710361890.50241,5.37558579444885,-52.059,48.696,-78.277,0.1694,-0.0224,0.2348,0.59,0.452,-9.945,-0.045871,-0.117411,-0.074172,0.244535364371673,0.0274997747214728,-0.0598375096570368
304,1710361890.52694,5.4001145362854,-51.854,48.566,-78.201,0.1721,-0.0274,0.2307,0.903,0.328,-9.983,-0.049217,-0.096665,-0.064382,0.247235364371673,0.0224997747214728,-0.0639375096570368
305,1710361890.55216,5.42533230781555,-51.692,48.396,-78.146,0.1723,-0.0125,0.2316,0.922,0.671,-9.918,-0.05614,-0.111006,-0.11611,0.247435364371673,0.0373997747214728,-0.0630375096570368
306,1710361890.57692,5.45009613037109,-51.452,48.202,-78.066,0.1711,-0.0323,0.2383,0.676,1.319,-10.888,-0.065005,-0.125932,-0.083929,0.246235364371673,0.0175997747214728,-0.0563375096570368
307,1710361890.60319,5.47636747360229,-51.336,48.14,-78.023,0.1739,-0.0314,0.2374,0.352,1.389,-11.557,0.001993,-0.011959,0.001333,0.249035364371673,0.0184997747214728,-0.0572375096570368
308,1710361890.62849,5.50166964530945,-51.353,48.238,-77.999,0.1702,-0.0313,0.2328,0.536,1.096,-11.769,0.028617,0.041458,0.097527,0.245335364371673,0.0185997747214728,-0.0618375096570368
309,1710361890.65269,5.52586245536804,-51.476,48.41,-78.046,0.1674,-0.0293,0.2414,1.092,0.922,-10.952,0.02253,0.096347,0.110358,0.242535364371673,0.0205997747214728,-0.0532375096570368
310,1710361890.67792,5.5510995388031,-51.486,48.569,-78.056,0.1712,-0.0264,0.2361,1.357,0.827,-10.771,-0.005909,-0.006971,0.118698,0.246335364371673,0.0234997747214728,-0.0585375096570368
311,1710361890.70326,5.5764319896698,-51.391,48.745,-77.968,0.1683,-0.0362,0.2305,1.069,0.422,-11.699,0.019069,-0.009808,0.113226,0.243435364371673,0.0136997747214728,-0.0641375096570368
312,1710361890.72768,5.60085892677307,-51.359,48.796,-77.893,0.1682,-0.0382,0.2371,0.479,0.19,-12.013,0.031386,-0.002061,-0.039235,0.243335364371673,0.0116997747214728,-0.0575375096570368
313,1710361890.75267,5.62584185600281,-51.399,48.592,-77.925,0.1701,-0.0363,0.2383,-0.473,1.492,-12.344,-0.024073,0.011414,-0.174257,0.245235364371673,0.0135997747214728,-0.0563375096570368
314,1710361890.7778,5.65097141265869,-51.678,48.499,-78.133,0.1673,-0.0352,0.2392,-1.366,1.637,-11.658,0.012523,0.16702,-0.029623,0.242435364371673,0.0146997747214728,-0.0554375096570368
315,1710361890.80297,5.67615008354187,-52.022,48.518,-78.424,0.1646,-0.0341,0.2379,-1.545,1.142,-10.331,-0.048153,0.133754,-0.032332,0.239735364371673,0.0157997747214728,-0.0567375096570368
316,1710361890.82919,5.70236873626709,-52.306,48.428,-78.758,0.1629,-0.0242,0.2355,-1.529,1.342,-9.827,-0.103301,0.12718,-0.119909,0.238035364371673,0.0256997747214728,-0.0591375096570368
317,1710361890.85271,5.72588133811951,-52.604,48.355,-79.098,0.1599,-0.039,0.2399,-1.39,1.493,-8.739,-0.069494,0.111642,-0.036056,0.235035364371673,0.0108997747214728,-0.0547375096570368
318,1710361890.8777,5.75087666511536,-52.729,48.332,-79.268,0.1589,-0.0439,0.2443,-0.78,0.473,-8.046,-0.040215,0.009182,-0.039625,0.234035364371673,0.00599977472147276,-0.0503375096570368
319,1710361890.90261,5.7757830619812,-52.654,48.147,-79.243,0.1592,-0.0251,0.2375,-0.768,0,-8.277,-0.00319,-0.095139,-0.183852,0.234335364371673,0.0247997747214728,-0.0571375096570368
320,1710361890.92892,5.80209541320801,-52.443,47.792,-79.034,0.162,-0.0242,0.2355,-1.092,1.125,-9.27,0.048818,-0.149538,-0.225857,0.237135364371673,0.0256997747214728,-0.0591375096570368
321,1710361890.95256,5.82574105262756,-52.222,47.569,-78.801,0.1609,-0.034,0.23,-0.885,1.948,-9.597,0.042494,-0.111759,-0.051405,0.236035364371673,0.0158997747214728,-0.0646375096570368
322,1710361890.97759,5.85076403617859,-52.083,47.643,-78.638,0.1599,-0.037,0.2388,0.045,1.018,-9.116,0.035893,-0.013592,0.112694,0.235035364371673,0.0128997747214728,-0.0558375096570368
323,1710361891.00263,5.87580466270447,-52.042,47.674,-78.587,0.1617,-0.039,0.2411,0.669,-0.07,-8.352,0.002431,-0.026392,-0.060382,0.236835364371673,0.0108997747214728,-0.0535375096570368
324,1710361891.02759,5.90076446533203,-51.979,47.482,-78.55,0.1608,-0.042,0.2455,0.495,0.919,-8.117,-0.021859,-0.068223,-0.141894,0.235935364371673,0.00789977472147275,-0.0491375096570368
325,1710361891.05259,5.92576265335083,-51.851,47.242,-78.489,0.1598,-0.0439,0.24,0.507,1.311,-8.436,-0.010727,-0.077217,-0.13501,0.234935364371673,0.00599977472147276,-0.0546375096570368
326,1710361891.07795,5.95112729072571,-51.753,47.015,-78.404,0.1608,-0.039,0.2389,0.66,0.655,-8.435,0.004588,-0.084693,-0.182582,0.235935364371673,0.0108997747214728,-0.0557375096570368
327,1710361891.10258,5.97575974464417,-51.615,46.619,-78.315,0.1628,-0.0311,0.2378,0.521,1.229,-8.976,-0.025466,-0.127253,-0.284317,0.237935364371673,0.0187997747214728,-0.0568375096570368
328,1710361891.12751,6.00068545341492,-51.467,46.215,-78.259,0.1636,-0.0371,0.2412,0.318,2.283,-9.353,-0.023682,-0.098037,-0.215199,0.238735364371673,0.0127997747214728,-0.0534375096570368
329,1710361891.15246,6.02563166618347,-51.322,45.988,-78.158,0.1619,-0.0301,0.2377,0.655,1.959,-9.716,0.000658,-0.10736,-0.105857,0.237035364371673,0.0197997747214728,-0.0569375096570368
330,1710361891.17794,6.05112099647522,-51.142,45.834,-78.033,0.1636,-0.0381,0.2281,1.046,1.46,-10.567,0.005838,-0.084337,-0.089726,0.238735364371673,0.0117997747214728,-0.0665375096570368
331,1710361891.20246,6.07563924789429,-51.177,45.72,-77.984,0.1618,-0.0361,0.24,0.806,1.169,-10.44,0.055549,0.030361,-0.085644,0.236935364371673,0.0137997747214728,-0.0546375096570368
332,1710361891.23041,6.10358452796936,-51.223,45.515,-77.994,0.1618,-0.0341,0.24,0.363,1.105,-10.722,-0.006423,-0.028404,-0.18036,0.236935364371673,0.0157997747214728,-0.0546375096570368
333,1710361891.25237,6.12554478645325,-51.289,45.334,-78.039,0.1627,-0.039,0.2423,0.167,1.713,-11.148,0.037171,0.053161,-0.075328,0.237835364371673,0.0108997747214728,-0.0523375096570368
334,1710361891.27778,6.15096044540405,-51.445,45.329,-78.014,0.1599,-0.036,0.2432,0.554,1.101,-11.038,0.107054,0.075791,-0.009741,0.235035364371673,0.0138997747214728,-0.0514375096570368
335,1710361891.30232,6.17549586296082,-51.547,45.241,-77.947,0.1562,-0.0349,0.2418,0.659,0.358,-10.26,0.09882,-0.014409,-0.12799,0.231335364371673,0.0149997747214728,-0.0528375096570368
336,1710361891.32728,6.20045351982117,-51.464,44.983,-77.698,0.159,-0.036,0.242,0.614,1.322,-11.369,0.162386,-0.076153,-0.159885,0.234135364371673,0.0138997747214728,-0.0526375096570368
337,1710361891.35256,6.22573471069336,-51.409,44.819,-77.386,0.1581,-0.034,0.243,0.317,0.884,-11.471,0.187441,-0.049586,-0.095377,0.233235364371673,0.0158997747214728,-0.0516375096570368
338,1710361891.37727,6.2504460811615,-51.36,44.654,-77.089,0.1572,-0.033,0.244,-0.13,0.963,-11.729,0.183488,-0.031128,-0.104711,0.232335364371673,0.0168997747214728,-0.0506375096570368
339,1710361891.40222,6.27539992332458,-51.43,44.535,-76.891,0.1564,-0.0221,0.2384,-0.365,0.896,-11.736,0.156773,0.059155,-0.084196,0.231535364371673,0.0277997747214728,-0.0562375096570368
340,1710361891.42721,6.30038833618164,-51.724,44.41,-76.94,0.1545,-0.0299,0.2438,-0.638,0.616,-10.902,0.06391,0.161342,-0.136695,0.229635364371673,0.0199997747214728,-0.0508375096570368
341,1710361891.45219,6.32536482810974,-52.115,44.159,-77.213,0.1535,-0.0299,0.2471,-0.989,0.154,-9.694,-0.042276,0.12208,-0.275751,0.228635364371673,0.0199997747214728,-0.0475375096570368
342,1710361891.47717,6.35035061836243,-52.404,43.677,-77.57,0.1508,-0.0289,0.2469,-1.318,0.395,-9.723,-0.151302,0.053063,-0.40898,0.225935364371673,0.0209997747214728,-0.0477375096570368
343,1710361891.50217,6.37534379959106,-52.64,43.127,-77.987,0.1545,-0.028,0.2493,-1.745,1.126,-9.24,-0.182223,0.020299,-0.366232,0.229635364371673,0.0218997747214728,-0.0453375096570368
344,1710361891.52714,6.40031456947327,-52.749,42.716,-78.278,0.1518,-0.02,0.2468,-1.423,0.781,-9.621,-0.127832,-0.006313,-0.241856,0.226935364371673,0.0298997747214728,-0.0478375096570368
345,1710361891.55218,6.42535805702209,-52.818,42.412,-78.467,0.1507,-0.0318,0.2491,-0.708,-0.296,-9.59,-0.091593,-0.021877,-0.228514,0.225835364371673,0.0180997747214728,-0.0455375096570368
346,1710361891.57713,6.45030641555786,-52.833,41.968,-78.594,0.1498,-0.0308,0.2512,-0.425,-0.023,-9.585,-0.083526,-0.06911,-0.350298,0.224935364371673,0.0190997747214728,-0.0434375096570369
347,1710361891.60206,6.47523927688599,-52.775,41.381,-78.702,0.1517,-0.0299,0.2404,-0.43,0.977,-9.693,-0.115828,-0.124502,-0.407787,0.226835364371673,0.0199997747214728,-0.0542375096570368
348,1710361891.62727,6.50044274330139,-52.762,40.905,-78.846,0.1527,-0.0269,0.2459,-0.349,1.825,-9.813,-0.092637,-0.018997,-0.254934,0.227835364371673,0.0229997747214728,-0.0487375096570368
349,1710361891.65209,6.52526330947876,-52.904,40.7,-79.005,0.1508,-0.0298,0.2381,0.179,1.263,-9.171,-0.038544,0.07454,-0.112634,0.225935364371673,0.0200997747214728,-0.0565375096570368
350,1710361891.67708,6.55025768280029,-53.091,40.519,-79.239,0.1489,-0.0268,0.2467,0.693,0.574,-8.463,-0.111096,0.067161,-0.17831,0.224035364371673,0.0230997747214728,-0.0479375096570368
351,1710361891.70203,6.57520699501038,-53.244,40.173,-79.529,0.1489,-0.0308,0.2534,0.581,0.952,-8.185,-0.140063,0.023416,-0.277944,0.224035364371673,0.0190997747214728,-0.0412375096570368
352,1710361891.72704,6.60021495819092,-53.341,39.82,-79.75,0.1473,-0.0169,0.2454,0.242,1.346,-8.323,-0.088984,0.003789,-0.222491,0.222435364371673,0.0329997747214728,-0.0492375096570368
353,1710361891.752,6.62517285346985,-53.374,39.543,-79.902,0.1462,-0.0248,0.2498,0.218,0.868,-8.746,-0.087369,-0.034503,-0.186395,0.221335364371673,0.0250997747214728,-0.0448375096570368
354,1710361891.77703,6.65021085739136,-53.361,39.363,-79.936,0.1479,-0.0337,0.2413,0.273,1.007,-8.999,-0.012052,-0.032522,-0.072604,0.223035364371673,0.0161997747214728,-0.0533375096570368
355,1710361891.80198,6.67515730857849,-53.248,39.237,-79.875,0.1489,-0.0298,0.2479,0.647,0.454,-9.282,0.007971,-0.098853,-0.083615,0.224035364371673,0.0200997747214728,-0.0467375096570368
356,1710361891.82698,6.70015430450439,-53.127,39.098,-79.741,0.1481,-0.0199,0.2488,0.856,0.585,-9.925,0.052995,-0.060263,-0.082218,0.223235364371673,0.0299997747214728,-0.0458375096570368
357,1710361891.85198,6.72515296936035,-53.071,38.958,-79.626,0.1471,-0.0278,0.2466,0.897,1.012,-10.19,0.044242,-0.0368,-0.092052,0.222235364371673,0.0220997747214728,-0.0480375096570368
358,1710361891.87697,6.75014114379883,-53.021,38.83,-79.569,0.1452,-0.0277,0.2487,0.845,1.274,-10.319,-0.008457,-0.050328,-0.071052,0.220335364371673,0.0221997747214728,-0.0459375096570368
359,1710361891.90196,6.77514052391052,-52.974,38.677,-79.582,0.1461,-0.0327,0.24,0.683,1.016,-10.538,-0.036384,-0.032802,-0.125421,0.221235364371673,0.0171997747214728,-0.0546375096570368
360,1710361891.92694,6.80012106895447,-52.973,38.427,-79.612,0.1463,-0.0198,0.2498,0.153,1.426,-10.572,-0.022741,-0.038334,-0.192113,0.221435364371673,0.0300997747214728,-0.0448375096570368
361,1710361891.9519,6.82507967948914,-52.928,38.242,-79.644,0.1479,-0.0318,0.2478,-0.224,2.309,-11.025,-0.062067,-0.044162,-0.042277,0.223035364371673,0.0180997747214728,-0.0468375096570368
362,1710361891.97779,6.85096120834351,-52.817,38.293,-79.657,0.147,-0.0337,0.2445,0.172,0.999,-10.629,-0.057927,-0.079181,0.073026,0.222135364371673,0.0161997747214728,-0.0501375096570368
363,1710361892.00276,6.87593221664429,-52.618,38.376,-79.532,0.147,-0.0357,0.2478,0.699,0.525,-10.86,0.033643,-0.107269,0.066295,0.222135364371673,0.0141997747214728,-0.0468375096570368
364,1710361892.02772,6.90089893341064,-52.38,38.436,-79.266,0.1479,-0.0337,0.2511,0.763,0.481,-11.356,0.114324,-0.124055,0.06618,0.223035364371673,0.0161997747214728,-0.0435375096570368
365,1710361892.05184,6.92501974105835,-52.153,38.41,-78.937,0.1479,-0.0347,0.2501,0.9,0.042,-12.393,0.115475,-0.106353,-0.055691,0.223035364371673,0.0151997747214728,-0.0445375096570368
366,1710361892.07773,6.95091032981873,-52.089,38.216,-78.814,0.1451,-0.0337,0.2466,0.153,1.235,-11.916,0.011177,-0.031703,-0.14843,0.220235364371673,0.0161997747214728,-0.0480375096570368
367,1710361892.10269,6.97586870193481,-52.14,38.082,-78.855,0.1462,-0.0278,0.2455,-0.618,1.887,-10.886,-0.006572,0.041864,-0.051013,0.221335364371673,0.0220997747214728,-0.0491375096570368
368,1710361892.12767,7.00085067749023,-52.216,38.092,-78.86,0.1451,-0.0357,0.2477,-0.831,1.954,-10.219,0.045266,0.02789,0.027606,0.220235364371673,0.0141997747214728,-0.0469375096570368
369,1710361892.15182,7.02499413490295,-52.315,38.219,-78.793,0.1425,-0.0227,0.2474,-0.617,1.654,-10.352,0.117898,0.114931,0.100523,0.217635364371673,0.0271997747214728,-0.0472375096570368
370,1710361892.17764,7.0508189201355,-52.569,38.452,-78.795,0.1434,-0.0267,0.2464,-0.558,1.376,-9.487,0.078373,0.197195,0.13986,0.218535364371673,0.0231997747214728,-0.0482375096570368
371,1710361892.20407,7.07724356651306,-52.861,38.633,-78.942,0.1414,-0.0366,0.2475,-0.477,0.627,-8.181,-0.013687,0.149594,0.041295,0.216535364371673,0.0132997747214728,-0.0471375096570368
372,1710361892.22764,7.10081744194031,-53.053,38.589,-79.102,0.1377,-0.0345,0.2483,-0.685,0.541,-8.097,-0.034231,0.06447,-0.102776,0.212835364371673,0.0153997747214728,-0.0463375096570368
373,1710361892.25272,7.12589335441589,-53.113,38.345,-79.209,0.1377,-0.0335,0.2483,-1.195,0.718,-8.39,-0.051207,-0.033698,-0.215395,0.212835364371673,0.0163997747214728,-0.0463375096570368
374,1710361892.27764,7.15081453323364,-53.009,37.941,-79.181,0.1359,-0.0344,0.2482,-1.581,1.443,-8.858,-0.019325,-0.16405,-0.277494,0.211035364371673,0.0154997747214728,-0.0464375096570368
375,1710361892.30278,7.17595672607422,-52.748,37.577,-78.999,0.1387,-0.0325,0.2462,-1.347,2.311,-10.019,0.055061,-0.171241,-0.17098,0.213835364371673,0.0173997747214728,-0.0484375096570368
376,1710361892.32766,7.20083570480347,-52.573,37.496,-78.741,0.1387,-0.0345,0.2363,-0.49,1.657,-10.114,0.113393,-0.072025,0.020535,0.213835364371673,0.0153997747214728,-0.0583375096570368
377,1710361892.35262,7.22579526901245,-52.472,37.491,-78.582,0.1386,-0.0375,0.2462,0.29,1.009,-9.407,0.019758,-0.062562,-0.010635,0.213735364371673,0.0123997747214728,-0.0484375096570368
378,1710361892.37837,7.25154852867126,-52.38,37.387,-78.572,0.1368,-0.0345,0.2483,0.691,0.672,-9.114,-0.058247,-0.059485,-0.101054,0.211935364371673,0.0153997747214728,-0.0463375096570368
379,1710361892.40262,7.27579522132874,-52.321,37.146,-78.631,0.1387,-0.0335,0.2484,0.754,1.108,-8.732,-0.073106,-0.072274,-0.192608,0.213835364371673,0.0163997747214728,-0.0462375096570368
380,1710361892.42779,7.30096316337585,-52.307,36.895,-78.715,0.1378,-0.0295,0.245,0.794,1.396,-8.79,-0.068213,-0.022852,-0.163499,0.212935364371673,0.0203997747214728,-0.0496375096570368
381,1710361892.45262,7.32579731941223,-52.332,36.67,-78.775,0.1405,-0.0336,0.2441,0.873,1.123,-8.699,-0.044994,-0.027264,-0.183741,0.215635364371673,0.0162997747214728,-0.0505375096570368
382,1710361892.47755,7.35072469711304,-52.321,36.347,-78.831,0.1377,-0.0345,0.2461,0.554,1.315,-8.982,-0.018124,-0.050512,-0.230894,0.212835364371673,0.0153997747214728,-0.0485375096570368
383,1710361892.50264,7.37581372261047,-52.316,36.042,-78.762,0.1386,-0.0345,0.2462,0.491,1.519,-9.363,0.067427,-0.053353,-0.198209,0.213735364371673,0.0153997747214728,-0.0484375096570368
384,1710361892.52768,7.40085220336914,-52.263,35.762,-78.644,0.1377,-0.0365,0.2428,0.788,1.501,-10.141,0.057327,-0.050597,-0.175488,0.212835364371673,0.0133997747214728,-0.0518375096570368
385,1710361892.55255,7.42572140693665,-52.276,35.504,-78.563,0.1387,-0.0296,0.2428,1.03,1.154,-10.011,0.058461,-0.018385,-0.189253,0.213835364371673,0.0202997747214728,-0.0518375096570368
386,1710361892.57751,7.45068311691284,-52.342,35.216,-78.497,0.1387,-0.0296,0.2461,0.861,1.117,-10.084,0.085011,0.013401,-0.214921,0.213835364371673,0.0202997747214728,-0.0485375096570368
387,1710361892.60242,7.4755973815918,-52.424,34.927,-78.402,0.1388,-0.0266,0.245,0.418,1.668,-10.39,0.096113,0.004064,-0.187322,0.213935364371673,0.0232997747214728,-0.0496375096570368
388,1710361892.62744,7.5006206035614,-52.501,34.736,-78.321,0.136,-0.0245,0.2448,0.333,1.791,-10.491,0.0777,0.027249,-0.104062,0.211135364371673,0.0253997747214728,-0.0498375096570368
389,1710361892.65245,7.52562880516052,-52.61,34.576,-78.288,0.136,-0.0275,0.2437,0.595,1.043,-10.509,0.0616,0.054278,-0.159434,0.211135364371673,0.0223997747214728,-0.0509375096570368
390,1710361892.67744,7.55061221122742,-52.778,34.38,-78.271,0.1341,-0.0275,0.237,0.428,1.434,-10.155,0.079798,0.070648,-0.139265,0.209235364371673,0.0223997747214728,-0.0576375096570368
391,1710361892.70239,7.57556200027466,-52.885,34.186,-78.176,0.1323,-0.0254,0.2457,-0.035,1.365,-9.455,0.122296,-0.024997,-0.152984,0.207435364371673,0.0244997747214728,-0.0489375096570368
392,1710361892.72745,7.60062766075134,-52.744,33.937,-77.909,0.1314,-0.0224,0.2456,0.177,1.684,-10.664,0.136077,-0.143483,-0.148625,0.206535364371673,0.0274997747214728,-0.0490375096570368
393,1710361892.75232,7.62549686431885,-52.591,33.706,-77.554,0.1352,-0.0215,0.2436,0.129,1.205,-11.264,0.217458,-0.100919,-0.130315,0.210335364371673,0.0283997747214728,-0.0510375096570368
394,1710361892.77742,7.65059924125671,-52.473,33.481,-77.16,0.1316,-0.0155,0.2378,-0.256,0.881,-11.896,0.229129,-0.097401,-0.140317,0.206735364371673,0.0343997747214728,-0.0568375096570368
395,1710361892.80234,7.67551803588867,-52.416,33.238,-76.817,0.1352,-0.0166,0.2424,-0.63,0.399,-12.041,0.191741,-0.067384,-0.183434,0.210335364371673,0.0332997747214728,-0.0522375096570368
396,1710361892.82871,7.70188641548157,-52.419,32.863,-76.646,0.1343,-0.0176,0.2457,-0.582,0.507,-11.94,0.065756,-0.04068,-0.306617,0.209435364371673,0.0322997747214728,-0.0489375096570368
397,1710361892.85255,7.7257251739502,-52.612,32.438,-76.741,0.1344,-0.0086,0.2434,-0.927,1.187,-11.275,-0.022867,0.101748,-0.296489,0.209535364371673,0.0412997747214728,-0.0512375096570368
398,1710361892.87722,7.75039792060852,-52.972,32.086,-77.028,0.1335,-0.0106,0.2423,-1.23,0.841,-9.809,-0.099109,0.159245,-0.288443,0.208635364371673,0.0392997747214728,-0.0523375096570368
399,1710361892.90226,7.77543425559998,-53.267,31.689,-77.34,0.1297,-0.0125,0.2388,-1.381,0.905,-8.828,-0.125854,0.057339,-0.321223,0.204835364371673,0.0373997747214728,-0.0558375096570368
400,1710361892.9283,7.80147171020508,-53.374,31.309,-77.565,0.1297,-0.0135,0.2388,-1.091,1.068,-9.03,-0.0998,-0.010857,-0.22178,0.204835364371673,0.0363997747214728,-0.0558375096570368
401,1710361892.95536,7.82853388786316,-53.411,31.079,-77.661,0.1299,-0.0056,0.2409,-0.462,-0.048,-9.002,-0.029536,-0.021964,-0.152499,0.205035364371673,0.0442997747214728,-0.0537375096570368
402,1710361892.97724,7.85041642189026,-53.424,30.752,-77.69,0.1297,-0.0165,0.2421,-0.215,-0.369,-9.083,-0.011637,-0.053356,-0.273957,0.204835364371673,0.0333997747214728,-0.0525375096570368
403,1710361893.00221,7.87538599967957,-53.412,30.249,-77.703,0.1289,-0.0095,0.2431,-0.332,0.214,-9.078,-0.015443,-0.106368,-0.375882,0.204035364371673,0.0403997747214728,-0.0515375096570368
404,1710361893.02713,7.90030264854431,-53.355,29.743,-77.68,0.1307,-0.0125,0.2421,-0.257,1.53,-9.556,-0.006095,-0.097517,-0.280182,0.205835364371673,0.0373997747214728,-0.0525375096570368
405,1710361893.05255,7.92572236061096,-53.302,29.437,-77.663,0.1316,-0.0106,0.24,0.313,1.049,-9.408,-0.019783,-0.072471,-0.180118,0.206735364371673,0.0392997747214728,-0.0546375096570368
406,1710361893.07723,7.95040202140808,-53.287,29.165,-77.707,0.1289,-0.0085,0.2354,0.823,0.795,-9.552,-0.047237,-0.019247,-0.191378,0.204035364371673,0.0413997747214728,-0.0592375096570368
407,1710361893.10215,7.97533106803894,-53.387,28.819,-77.82,0.1317,-0.0066,0.2399,0.82,0.459,-9.129,-0.049524,0.012468,-0.294561,0.206835364371673,0.0432997747214728,-0.0547375096570368
408,1710361893.12709,8.00027084350586,-53.502,28.343,-77.974,0.1317,-0.0066,0.2421,0.203,1.215,-9.138,-0.088567,-0.014604,-0.345758,0.206835364371673,0.0432997747214728,-0.0525375096570368
409,1710361893.15209,8.02526831626892,-53.554,27.936,-78.103,0.1271,-0.0035,0.2407,-0.417,1.745,-9.462,-0.059427,-0.023425,-0.22964,0.202235364371673,0.0463997747214728,-0.0539375096570368
410,1710361893.17728,8.05045318603516,-53.59,27.74,-78.149,0.128,-0.0035,0.2396,-0.35,1.253,-9.7,-0.003965,0.002176,-0.08963,0.203135364371673,0.0463997747214728,-0.0550375096570368
411,1710361893.20199,8.07516860961914,-53.619,27.623,-78.146,0.1279,-0.0085,0.243,0.148,0.619,-9.484,0.003096,-0.016763,-0.092749,0.203035364371673,0.0413997747214728,-0.0516375096570368
412,1710361893.22706,8.10023355484009,-53.587,27.433,-78.155,0.127,-0.0085,0.2407,0.674,0.347,-9.644,-0.031194,-0.060407,-0.152863,0.202135364371673,0.0413997747214728,-0.0539375096570368
413,1710361893.25484,8.12801647186279,-53.558,27.199,-78.183,0.127,-0.0114,0.2375,0.815,0.818,-9.541,-0.030825,-0.048871,-0.143415,0.202135364371673,0.0384997747214728,-0.0571375096570368
414,1710361893.27701,8.15018653869629,-53.544,27.003,-78.214,0.1288,-0.0135,0.2442,0.93,0.895,-9.585,-0.024665,-0.033936,-0.125396,0.203935364371673,0.0363997747214728,-0.0504375096570368
415,1710361893.30203,8.17520356178284,-53.565,26.811,-78.235,0.128,-0.0065,0.243,1.198,0.812,-9.867,-0.000796,0.000199,-0.140071,0.203135364371673,0.0433997747214728,-0.0516375096570368
416,1710361893.32878,8.20195436477661,-53.636,26.589,-78.275,0.127,-0.0104,0.2408,1.281,0.623,-9.937,-0.026726,0.015779,-0.180486,0.202135364371673,0.0394997747214728,-0.0538375096570368
417,1710361893.35238,8.22555422782898,-53.698,26.256,-78.389,0.128,-0.0065,0.2419,0.873,0.807,-9.917,-0.096045,-0.03775,-0.269849,0.203135364371673,0.0433997747214728,-0.0527375096570368
418,1710361893.3782,8.2513747215271,-53.725,25.907,-78.533,0.127,-0.0114,0.243,0.416,1.748,-10.628,-0.081172,-0.012445,-0.19382,0.202135364371673,0.0384997747214728,-0.0516375096570368
419,1710361893.41126,8.28443908691406,-53.798,25.712,-78.635,0.1262,-0.0045,0.2417,0.457,1.373,-10.573,-0.032305,0.026569,-0.124862,0.201335364371673,0.0453997747214728,-0.0529375096570368
420,1710361893.42779,8.30096769332886,-53.865,25.574,-78.682,0.1262,-0.0045,0.2384,0.477,1.258,-10.403,-0.006209,0.007407,-0.088288,0.201335364371673,0.0453997747214728,-0.0562375096570368
421,1710361893.45193,8.32510781288147,-53.84,25.48,-78.667,0.1233,-0.0084,0.2405,0.579,1.295,-10.73,0.007257,-0.045064,-0.040657,0.198435364371673,0.0414997747214728,-0.0541375096570368
422,1710361893.47806,8.35123300552368,-53.753,25.396,-78.595,0.1242,-0.0123,0.2329,0.433,1.013,-11.02,0.036967,-0.068731,-0.061605,0.199335364371673,0.0375997747214728,-0.0617375096570368
423,1710361893.50219,8.37536668777466,-53.65,25.305,-78.479,0.1261,-0.0104,0.2396,0.194,1.431,-11.552,0.042992,-0.072579,-0.032235,0.201235364371673,0.0394997747214728,-0.0550375096570368
424,1710361893.53609,8.40927052497864,-53.596,25.23,-78.394,0.1242,-0.0104,0.2362,0.192,1.18,-11.626,0.030285,-0.027661,-0.064796,0.199335364371673,0.0394997747214728,-0.0584375096570368
425,1710361893.5529,8.4260733127594,-53.608,25.146,-78.408,0.1234,-0.0044,0.2405,-0.28,1.686,-11.228,-0.028088,0.017153,-0.037768,0.198535364371673,0.0454997747214728,-0.0541375096570368
426,1710361893.57776,8.45093441009521,-53.661,25.188,-78.48,0.1233,-0.0104,0.2394,-0.706,2.246,-10.505,-0.050207,0.054695,0.065095,0.198435364371673,0.0394997747214728,-0.0552375096570368
427,1710361893.60277,8.47594547271729,-53.737,25.353,-78.553,0.1252,-0.0045,0.2395,-0.731,1.187,-10.019,-0.015296,0.081167,0.101602,0.200335364371673,0.0453997747214728,-0.0551375096570368
428,1710361893.62771,8.50088334083557,-53.806,25.397,-78.604,0.1233,-0.0084,0.2394,-1.23,1.094,-10.053,-0.030878,0.029283,-0.025539,0.198435364371673,0.0414997747214728,-0.0552375096570368
429,1710361893.65299,8.52616906166077,-53.88,25.42,-78.67,0.1205,-0.0093,0.2403,-1.516,1.893,-9.726,-0.016045,0.07348,0.053716,0.195635364371673,0.0405997747214728,-0.0543375096570368
430,1710361893.67771,8.55088877677917,-53.984,25.61,-78.732,0.1223,-0.0133,0.2394,-0.987,1.247,-9.221,-0.014059,0.098926,0.14779,0.197435364371673,0.0365997747214728,-0.0552375096570368
431,1710361893.70268,8.57585549354553,-54.071,25.777,-78.826,0.1186,-0.0142,0.2414,-0.377,0.128,-8.915,-0.069113,0.053982,0.054944,0.193735364371673,0.0356997747214728,-0.0532375096570368
432,1710361893.7277,8.60087561607361,-54.154,25.72,-78.937,0.1206,-0.0053,0.2392,-0.49,0.113,-8.37,-0.043492,0.024079,-0.126609,0.195735364371673,0.0445997747214728,-0.0554375096570368
433,1710361893.75286,8.62603855133057,-54.16,25.408,-78.997,0.1177,-0.0142,0.2402,-1.033,1.136,-8.301,-0.042743,-0.085416,-0.257102,0.192835364371673,0.0356997747214728,-0.0544375096570368
434,1710361893.77767,8.65085005760193,-54.024,25.095,-78.971,0.1161,-0.0013,0.2323,-1.379,1.842,-9.503,0.024971,-0.110811,-0.131978,0.191235364371673,0.0485997747214728,-0.0623375096570368
435,1710361893.80257,8.6757481098175,-53.923,24.995,-78.755,0.1195,-0.0142,0.2436,-1.014,1.494,-9.816,0.142879,-0.079245,-0.03181,0.194635364371673,0.0356997747214728,-0.0510375096570368
436,1710361893.82761,8.70078325271606,-53.82,24.918,-78.558,0.1224,-0.0103,0.2328,-0.318,1.372,-10.204,0.088075,-0.043792,-0.036477,0.197535364371673,0.0395997747214728,-0.0618375096570368
437,1710361893.85256,8.72573494911194,-53.782,24.832,-78.456,0.1214,-0.0123,0.2382,-0.072,0.835,-9.434,0.019624,-0.056701,-0.091274,0.196535364371673,0.0375997747214728,-0.0564375096570368
438,1710361893.87786,8.75103998184204,-53.699,24.681,-78.437,0.1187,-0.0092,0.2391,-0.256,1.449,-9.418,-0.02064,-0.07444,-0.074933,0.193835364371673,0.0406997747214728,-0.0555375096570368
439,1710361893.90259,8.7757625579834,-53.625,24.613,-78.408,0.1206,-0.0053,0.2392,0.019,1.526,-9.277,0.003252,-0.044851,-0.014876,0.195735364371673,0.0445997747214728,-0.0554375096570368
440,1710361893.92758,8.80075597763062,-53.57,24.547,-78.383,0.1208,0.0056,0.2358,0.464,1.007,-9.155,-0.003895,-0.030647,-0.069422,0.195935364371673,0.0554997747214728,-0.0588375096570368
441,1710361893.95534,8.82851624488831,-53.544,24.351,-78.367,0.1197,-0.0063,0.2358,0.386,0.975,-8.765,0.009561,-0.059569,-0.16649,0.194835364371673,0.0435997747214728,-0.0588375096570368
442,1710361893.97753,8.85070967674255,-53.445,24.059,-78.29,0.1215,-0.0093,0.2349,0.262,1.55,-9.389,0.03339,-0.113679,-0.179907,0.196635364371673,0.0405997747214728,-0.0597375096570368
443,1710361894.00477,8.87794542312622,-53.35,23.797,-78.176,0.1214,-0.0123,0.2349,0.357,1.491,-9.642,0.064495,-0.080866,-0.163581,0.196535364371673,0.0375997747214728,-0.0597375096570368
444,1710361894.02997,8.9031445980072,-53.28,23.586,-78.043,0.1215,-0.0073,0.2371,0.582,1.61,-9.733,0.07778,-0.064113,-0.117697,0.196635364371673,0.0425997747214728,-0.0575375096570368
445,1710361894.05239,8.92556858062744,-53.222,23.406,-77.896,0.1224,-0.0093,0.2328,0.828,1.519,-9.976,0.076501,-0.062319,-0.12183,0.197535364371673,0.0405997747214728,-0.0618375096570368
446,1710361894.07949,8.95266461372375,-53.213,23.157,-77.791,0.1216,0.0006,0.2326,0.864,1.396,-10.401,0.060585,-0.020393,-0.197898,0.196735364371673,0.0504997747214728,-0.0620375096570368
447,1710361894.10244,8.97561979293823,-53.304,22.862,-77.778,0.1197,-0.0023,0.2336,0.599,1.474,-10.532,0.022617,0.033415,-0.226691,0.194835364371673,0.0475997747214728,-0.0610375096570368
448,1710361894.12734,9.00051617622375,-53.464,22.564,-77.801,0.1216,-0.0014,0.2282,0.383,1.837,-10.423,0.029932,0.072642,-0.217859,0.196735364371673,0.0484997747214728,-0.0664375096570368
449,1710361894.1529,9.02607131004333,-53.687,22.359,-77.827,0.1188,-0.0043,0.2369,0.342,1.754,-10.203,0.041744,0.132053,-0.132629,0.193935364371673,0.0455997747214728,-0.0577375096570368
450,1710361894.17731,9.05048775672913,-53.947,22.228,-77.876,0.1197,-0.0053,0.2413,0.396,0.976,-10.243,0.01812,0.161658,-0.143327,0.194835364371673,0.0445997747214728,-0.0533375096570368
451,1710361894.20409,9.07726502418518,-54.274,22.052,-77.977,0.1151,-0.0032,0.2366,0.15,0.465,-9.471,0.013196,0.174129,-0.194518,0.190235364371673,0.0466997747214728,-0.0580375096570368
452,1710361894.22722,9.10039925575256,-54.502,21.759,-78.009,0.117,0.0037,0.2367,-0.202,0.814,-9.38,0.061781,0.057785,-0.235828,0.192135364371673,0.0535997747214728,-0.0579375096570368
453,1710361894.25229,9.12546682357788,-54.574,21.444,-77.892,0.1153,0.0106,0.2332,0.093,0.808,-10.383,0.108869,-0.01797,-0.213602,0.190435364371673,0.0604997747214728,-0.0614375096570368
454,1710361894.27731,9.15048122406006,-54.631,21.104,-77.715,0.1133,0.0008,0.2354,0.206,0.099,-10.848,0.151029,-0.015298,-0.279202,0.188435364371673,0.0506997747214728,-0.0592375096570368
455,1710361894.30227,9.1754424571991,-54.712,20.591,-77.54,0.1124,0.0028,0.2353,-0.09,0.623,-11.136,0.132365,-0.02152,-0.39898,0.187535364371673,0.0526997747214728,-0.0593375096570368
456,1710361894.32722,9.20039367675781,-54.787,20.015,-77.403,0.1143,0.0077,0.2375,-0.695,1.605,-11.066,0.094414,-0.052872,-0.39326,0.189435364371673,0.0575997747214728,-0.0571375096570368
457,1710361894.3523,9.2254810333252,-54.811,19.548,-77.27,0.1153,0.0106,0.2321,-0.678,2.155,-11.277,0.09532,-0.048731,-0.276435,0.190435364371673,0.0604997747214728,-0.0625375096570368
458,1710361894.37729,9.25046896934509,-54.896,19.22,-77.204,0.1154,0.0166,0.2342,-0.452,2.068,-10.815,0.035807,0.030742,-0.207176,0.190535364371673,0.0664997747214728,-0.0604375096570368
459,1710361894.4023,9.27547645568848,-55.046,18.957,-77.274,0.1116,0.0107,0.234,-0.194,1.679,-9.745,-0.047153,0.060472,-0.208667,0.186735364371673,0.0605997747214728,-0.0606375096570368
460,1710361894.42722,9.30039477348328,-55.223,18.668,-77.42,0.1117,0.0177,0.235,-0.278,1.873,-9.107,-0.076213,0.07284,-0.225331,0.186835364371673,0.0675997747214728,-0.0596375096570368
461,1710361894.4521,9.32527899742126,-55.369,18.424,-77.582,0.1098,0.0138,0.235,-0.401,2.129,-9.184,-0.076053,0.052854,-0.151009,0.184935364371673,0.0636997747214728,-0.0596375096570368
462,1710361894.47712,9.35029435157776,-55.528,18.262,-77.722,0.1109,0.0217,0.2306,-0.384,1.244,-9.697,-0.062406,0.099731,-0.141155,0.186035364371673,0.0715997747214728,-0.0640375096570368
463,1710361894.50212,9.37529492378235,-55.759,18.057,-77.883,0.1107,0.0108,0.2362,-0.892,0.984,-9.834,-0.074574,0.126701,-0.192607,0.185835364371673,0.0606997747214728,-0.0584375096570368
464,1710361894.52705,9.40023016929626,-55.977,17.852,-78.097,0.1079,0.0098,0.2426,-1.339,1.124,-9.856,-0.116745,0.10652,-0.141116,0.183035364371673,0.0596997747214728,-0.0520375096570368
465,1710361894.55288,9.42605471611023,-56.144,17.807,-78.255,0.1079,0.0089,0.2305,-1.299,0.764,-9.945,-0.042991,0.120091,-0.001584,0.183035364371673,0.0587997747214728,-0.0641375096570368
466,1710361894.57827,9.45144319534302,-56.253,17.867,-78.334,0.106,0.0089,0.237,-0.851,0.368,-9.666,-0.036975,0.048447,0.035368,0.181135364371673,0.0587997747214728,-0.0576375096570368
467,1710361894.60208,9.47525978088379,-56.276,17.91,-78.354,0.1059,0.0029,0.2393,-0.038,-0.259,-9.502,0.015256,0.009309,-0.000187,0.181035364371673,0.0527997747214728,-0.0553375096570368
468,1710361894.62797,9.50114631652832,-56.27,17.809,-78.325,0.106,0.0039,0.2305,0.259,0.103,-9.43,0.005817,-0.039239,-0.112135,0.181135364371673,0.0537997747214728,-0.0641375096570368
469,1710361894.65203,9.52520203590393,-56.216,17.583,-78.306,0.107,0.0118,0.237,0.084,1.28,-9.767,0.003522,-0.071362,-0.14972,0.182135364371673,0.0616997747214728,-0.0576375096570368
470,1710361894.67857,9.55174469947815,-56.153,17.457,-78.276,0.1077,-0.0001,0.2306,-0.024,2.25,-10.371,0.015292,-0.038904,-0.011394,0.182835364371673,0.0497997747214728,-0.0640375096570368
471,1710361894.70214,9.57532095909119,-56.159,17.532,-78.212,0.1069,0.0059,0.2415,0.099,1.849,-10.205,0.041623,0.031868,0.07438,0.182035364371673,0.0557997747214728,-0.0531375096570368
472,1710361894.72783,9.60100126266479,-56.204,17.7,-78.218,0.1069,0.0089,0.2381,0.243,1.765,-10.072,-0.023323,0.067133,0.129159,0.182035364371673,0.0587997747214728,-0.0565375096570368
473,1710361894.75198,9.62515592575073,-56.268,17.908,-78.29,0.1079,0.0108,0.2371,0.24,1.401,-9.585,-0.040433,0.076701,0.12813,0.183035364371673,0.0606997747214728,-0.0575375096570368
474,1710361894.77786,9.65104007720947,-56.308,18.125,-78.337,0.1022,0.005,0.239,0.029,1.755,-9.599,-0.017346,0.049755,0.163964,0.177335364371673,0.0548997747214728,-0.0556375096570368
475,1710361894.80193,9.6751081943512,-56.333,18.422,-78.321,0.1051,0.0119,0.238,-0.154,1.602,-9.798,0.032455,0.058821,0.220774,0.180235364371673,0.0617997747214728,-0.0566375096570368
476,1710361894.82777,9.70094347000122,-56.304,18.782,-78.272,0.1051,0.0099,0.2391,-0.325,1.457,-9.645,0.020148,0.008037,0.258964,0.180235364371673,0.0597997747214728,-0.0555375096570368
477,1710361894.85272,9.72589159011841,-56.199,19.19,-78.194,0.1051,0.0069,0.2359,-0.461,1.925,-9.628,0.036688,-0.019314,0.331235,0.180235364371673,0.0567997747214728,-0.0587375096570368
478,1710361894.87781,9.75098776817322,-56.013,19.741,-78.07,0.104,0.001,0.2413,-0.24,1.898,-9.97,0.050427,-0.036226,0.453888,0.179135364371673,0.0508997747214728,-0.0533375096570368
479,1710361894.90277,9.77594685554504,-55.821,20.428,-77.927,0.1067,-0.007,0.2416,0.152,1.231,-9.769,0.031148,-0.028612,0.495205,0.181835364371673,0.0428997747214728,-0.0530375096570368
480,1710361894.92775,9.80092334747314,-55.56,21.049,-77.867,0.1085,-0.01,0.2319,0.17,1.229,-9.401,-0.05489,-0.107499,0.433428,0.183635364371673,0.0398997747214728,-0.0627375096570368
481,1710361894.95277,9.82594394683838,-55.216,21.635,-77.809,0.1094,-0.011,0.2407,0.141,2.044,-9.649,-0.034,-0.127537,0.485011,0.184535364371673,0.0388997747214728,-0.0539375096570368
482,1710361894.97994,9.85311818122864,-54.851,22.382,-77.699,0.1103,-0.013,0.2397,0.257,1.781,-9.711,-0.014061,-0.114072,0.596942,0.185435364371673,0.0368997747214728,-0.0549375096570368
483,1710361895.00273,9.87590193748474,-54.453,23.215,-77.552,0.113,-0.016,0.2388,0.384,1.554,-9.841,-0.015392,-0.132901,0.637423,0.188135364371673,0.0338997747214728,-0.0558375096570368
484,1710361895.02807,9.90124416351318,-54.023,24.117,-77.399,0.1122,-0.013,0.2387,0.466,1.359,-9.986,-0.018031,-0.127052,0.698082,0.187335364371673,0.0368997747214728,-0.0559375096570368
485,1710361895.05276,9.92593336105347,-53.572,25.048,-77.229,0.1138,-0.023,0.2379,0.609,1.178,-9.969,-0.014124,-0.144219,0.696722,0.188935364371673,0.0268997747214728,-0.0567375096570368
486,1710361895.07778,9.9509551525116,-53.106,26.029,-77.028,0.1167,-0.0201,0.238,0.564,1.773,-10.268,0.007578,-0.111196,0.778501,0.191835364371673,0.0297997747214728,-0.0566375096570368
487,1710361895.10266,9.97583246231079,-52.664,27.171,-76.814,0.1165,-0.03,0.237,0.652,1.483,-10.005,0.010883,-0.069845,0.871747,0.191635364371673,0.0198997747214728,-0.0576375096570368
488,1710361895.12766,10.0008354187012,-52.213,28.371,-76.603,0.1146,-0.0369,0.2249,0.731,1.121,-9.61,-0.013652,-0.093556,0.866625,0.189735364371673,0.0129997747214728,-0.0697375096570368
489,1710361895.15267,10.0258479118347,-51.725,29.554,-76.377,0.1146,-0.0379,0.2326,0.467,1.881,-9.89,-0.006815,-0.086057,0.908331,0.189735364371673,0.0119997747214728,-0.0620375096570368
490,1710361895.17761,10.0507829189301,-51.205,30.862,-76.103,0.1163,-0.0419,0.2328,0.313,1.23,-9.871,0.011272,-0.09519,0.969623,0.191435364371673,0.00799977472147276,-0.0618375096570368
491,1710361895.20445,10.0776288509369,-50.623,32.141,-75.796,0.1163,-0.0468,0.2317,0.333,1.441,-10.099,-0.013204,-0.125836,0.943188,0.191435364371673,0.00309977472147276,-0.0629375096570368
492,1710361895.2276,10.1007754802704,-50.009,33.401,-75.509,0.1152,-0.0557,0.234,0.144,1.643,-9.886,-0.046976,-0.134911,0.939781,0.190335364371673,-0.00580022527852724,-0.0606375096570368
493,1710361895.25257,10.1257424354553,-49.353,34.703,-75.198,0.117,-0.0558,0.2385,-0.024,1.878,-9.827,-0.039566,-0.138823,1.006149,0.192135364371673,-0.00590022527852724,-0.0561375096570368
494,1710361895.27755,10.1507289409637,-48.648,36.093,-74.868,0.1161,-0.0607,0.2341,0.044,1.575,-9.687,-0.062809,-0.132227,1.061964,0.191235364371673,-0.0108002252785272,-0.0605375096570368
495,1710361895.30253,10.1757047176361,-47.87,37.457,-74.502,0.1169,-0.0647,0.2309,0.35,1.029,-9.356,-0.077426,-0.191143,1.00748,0.192035364371673,-0.0148002252785272,-0.0637375096570368
496,1710361895.32813,10.20130443573,-46.976,38.745,-74.052,0.1168,-0.0736,0.2343,0.368,1.278,-10.032,-0.054814,-0.227547,1.009685,0.191935364371673,-0.0237002252785272,-0.0603375096570368
497,1710361895.35246,10.2256405353546,-46.099,40.086,-73.524,0.1186,-0.0746,0.23,0.25,1.439,-10.43,-0.004583,-0.166168,1.054116,0.193735364371673,-0.0247002252785272,-0.0646375096570368
498,1710361895.3775,10.2506787776947,-45.231,41.535,-72.952,0.1185,-0.0855,0.2203,0.261,1.071,-10.443,-0.004814,-0.132537,1.124796,0.193635364371673,-0.0356002252785272,-0.0743375096570368
499,1710361895.40242,10.2755994796753,-44.385,43.002,-72.419,0.1176,-0.0795,0.2311,0.274,0.592,-9.993,-0.043607,-0.105783,1.084627,0.192735364371673,-0.0296002252785272,-0.0635375096570368
500,1710361895.4274,10.3005793094635,-43.512,44.373,-71.902,0.1175,-0.0865,0.2301,0.193,0.601,-9.893,-0.076439,-0.136776,1.014901,0.192635364371673,-0.0366002252785272,-0.0645375096570368
501,1710361895.45264,10.3258125782013,-42.589,45.674,-71.362,0.1127,-0.0972,0.231,-0.089,1.184,-9.865,-0.07975,-0.147854,1.015793,0.187835364371673,-0.0473002252785272,-0.0636375096570368
502,1710361895.47746,10.3506388664246,-41.61,47.027,-70.738,0.1126,-0.1022,0.2278,-0.247,1.43,-9.741,-0.054708,-0.129925,1.069697,0.187735364371673,-0.0523002252785272,-0.0668375096570368
503,1710361895.50235,10.3755285739899,-40.548,48.422,-70.015,0.1126,-0.1071,0.2202,-0.108,1.084,-9.677,-0.042208,-0.151731,1.083883,0.187735364371673,-0.0572002252785272,-0.0744375096570368
504,1710361895.52739,10.400562286377,-39.459,49.782,-69.252,0.1088,-0.11,0.2277,-0.018,0.888,-9.754,-0.040998,-0.126495,1.052819,0.183935364371673,-0.0601002252785272,-0.0669375096570368
505,1710361895.55237,10.425546169281,-38.318,51.098,-68.442,0.1069,-0.1159,0.2265,-0.046,0.924,-9.665,-0.060697,-0.155556,1.028769,0.182035364371673,-0.0660002252785273,-0.0681375096570368
506,1710361895.57733,10.4505021572113,-37.062,52.338,-67.56,0.1059,-0.1208,0.2276,0.019,1.111,-9.727,-0.082567,-0.191563,0.996419,0.181035364371673,-0.0709002252785272,-0.0670375096570368
507,1710361895.60423,10.4774031639099,-35.711,53.56,-66.589,0.1049,-0.1228,0.2287,0.053,1.561,-9.951,-0.069268,-0.177558,1.026383,0.180035364371673,-0.0729002252785272,-0.0659375096570368
508,1710361895.62727,10.5004508495331,-34.27,54.846,-65.506,0.1029,-0.1317,0.2232,0.01,1.405,-9.77,-0.052948,-0.171179,1.072864,0.178035364371673,-0.0818002252785273,-0.0714375096570368
509,1710361895.65226,10.5254323482513,-32.745,56.119,-64.328,0.1001,-0.1365,0.2263,0.054,1.185,-9.901,-0.064124,-0.168982,1.046247,0.175235364371673,-0.0866002252785273,-0.0683375096570368
510,1710361895.6773,10.5504724979401,-31.167,57.32,-63.096,0.0981,-0.1474,0.2263,-0.039,1.247,-9.86,-0.057197,-0.168154,1.005991,0.173235364371673,-0.0975002252785273,-0.0683375096570368
511,1710361895.70249,10.5756652355194,-29.479,58.492,-61.775,0.098,-0.1504,0.2264,-0.297,1.634,-9.927,-0.092428,-0.180842,1.033286,0.173135364371673,-0.100500225278527,-0.0682375096570368
512,1710361895.72732,10.6005005836487,-27.573,59.697,-60.258,0.0934,-0.1493,0.2228,-0.278,1.268,-9.799,-0.066241,-0.189596,1.080229,0.168535364371673,-0.0994002252785272,-0.0718375096570368
513,1710361895.75219,10.6253626346588,-25.544,60.856,-58.58,0.0914,-0.1581,0.2151,-0.146,1.036,-9.796,-0.059009,-0.193347,1.038687,0.166535364371673,-0.108200225278527,-0.0795375096570368
514,1710361895.77723,10.6504094600677,-23.38,61.941,-56.767,0.0914,-0.1581,0.2195,-0.14,1.083,-9.761,-0.060648,-0.212878,1.02739,0.166535364371673,-0.108200225278527,-0.0751375096570368
515,1710361895.80215,10.6753249168396,-21.089,62.963,-54.815,0.0869,-0.154,0.2169,-0.119,0.957,-9.921,-0.056349,-0.202711,0.985473,0.162035364371673,-0.104100225278527,-0.0777375096570368
516,1710361895.82738,10.700560092926,-18.683,63.918,-52.766,0.0857,-0.1718,0.2204,-0.161,1.203,-9.892,-0.099793,-0.215409,0.977987,0.160835364371673,-0.121900225278527,-0.0742375096570368
517,1710361895.8521,10.7252774238586,-16.092,64.802,-50.61,0.0829,-0.1728,0.2092,-0.01,1.513,-9.839,-0.140742,-0.230903,0.974449,0.158035364371673,-0.122900225278527,-0.0854375096570368
518,1710361895.87799,10.7511689662933,-13.309,65.655,-48.283,0.08,-0.1777,0.219,0.187,1.173,-9.566,-0.129489,-0.220401,0.964616,0.155135364371673,-0.127800225278527,-0.0756375096570368
519,1710361895.90213,10.7753059864044,-10.508,66.402,-45.89,0.0781,-0.1826,0.2145,0.196,1.082,-9.743,-0.106702,-0.224483,0.88982,0.153235364371673,-0.132700225278527,-0.0801375096570368
520,1710361895.92711,10.8002882003784,-7.707,67.037,-43.483,0.0743,-0.1864,0.2132,0.029,1.739,-9.771,-0.128398,-0.229632,0.861758,0.149435364371673,-0.136500225278527,-0.0814375096570368
521,1710361895.95208,10.8252518177032,-4.66,67.637,-40.857,0.0706,-0.1913,0.2152,0.034,1.852,-9.719,-0.122255,-0.239965,0.905649,0.145735364371673,-0.141400225278527,-0.0794375096570368
522,1710361895.9779,10.8510770797729,-1.332,68.212,-37.904,0.0687,-0.1942,0.2119,0.144,1.848,-10.019,-0.073954,-0.23385,0.953444,0.143835364371673,-0.144300225278527,-0.0827375096570368
523,1710361896.00211,10.8752853870392,2.176,68.768,-34.701,0.0659,-0.1902,0.2127,0.496,1.254,-10.229,-0.038162,-0.209203,0.9409,0.141035364371673,-0.140300225278527,-0.0819375096570368
524,1710361896.02819,10.9013710021973,5.598,69.194,-31.606,0.063,-0.203,0.2138,0.635,1.351,-10.156,-0.086832,-0.226857,0.844182,0.138135364371673,-0.153100225278527,-0.0808375096570368
525,1710361896.05198,10.9251580238342,8.985,69.532,-28.57,0.0583,-0.2088,0.2092,0.515,1.808,-10.229,-0.092771,-0.198877,0.852753,0.133435364371673,-0.158900225278527,-0.0854375096570368
526,1710361896.07791,10.9510841369629,12.559,69.88,-25.33,0.0582,-0.2128,0.2125,0.478,1.588,-10.14,-0.065741,-0.158587,0.898201,0.133335364371673,-0.162900225278527,-0.0821375096570368
527,1710361896.10208,10.9752547740936,16.301,70.213,-21.873,0.0527,-0.2097,0.2089,0.569,1.174,-10.146,-0.035961,-0.136274,0.91388,0.127835364371673,-0.159800225278527,-0.0857375096570368
528,1710361896.12787,11.0010468959808,19.926,70.466,-18.519,0.048,-0.2135,0.2108,0.623,0.769,-10.13,-0.044447,-0.112932,0.818318,0.123135364371673,-0.163600225278527,-0.0838375096570368
529,1710361896.15395,11.0271232128143,23.354,70.651,-15.34,0.0461,-0.2184,0.2129,0.377,1.149,-9.987,-0.035748,-0.102181,0.799344,0.121235364371673,-0.168500225278527,-0.0817375096570368
530,1710361896.17784,11.0510132312775,26.849,70.782,-12.085,0.0405,-0.2203,0.206,0.488,0.768,-9.924,-0.022488,-0.096479,0.797195,0.115635364371673,-0.170400225278527,-0.0886375096570368
531,1710361896.20293,11.0761075019836,30.173,70.864,-8.95,0.0359,-0.2162,0.2112,0.692,0.597,-9.772,0.007121,-0.068818,0.733571,0.111035364371673,-0.166300225278527,-0.0834375096570368
532,1710361896.22777,11.1009435653687,33.079,70.873,-6.191,0.0322,-0.2201,0.2132,0.608,0.604,-9.413,0.008914,-0.09769,0.6102,0.107335364371673,-0.170200225278527,-0.0814375096570368
533,1710361896.25396,11.1271331310272,35.679,70.779,-3.714,0.032,-0.229,0.21,0.38,1.065,-9.778,0.020483,-0.118574,0.584284,0.107135364371673,-0.179100225278527,-0.0846375096570368
534,1710361896.27786,11.1510317325592,38.176,70.638,-1.297,0.0265,-0.2259,0.2118,0.202,0.944,-10.071,0.054417,-0.122341,0.557977,0.101635364371673,-0.176000225278527,-0.0828375096570368
535,1710361896.30277,11.175945520401,40.538,70.472,1.016,0.0237,-0.2258,0.2116,-0.071,1.213,-10.165,0.059466,-0.111102,0.55114,0.0988353643716733,-0.175900225278527,-0.0830375096570368
536,1710361896.32778,11.2009546756744,42.804,70.273,3.241,0.0228,-0.2287,0.2083,0.072,1.034,-10.462,0.06141,-0.117822,0.518881,0.0979353643716733,-0.178800225278527,-0.0863375096570368
537,1710361896.3528,11.2259745597839,44.901,70.072,5.296,0.0191,-0.2296,0.2081,0.198,1.141,-10.234,0.051508,-0.08501,0.507091,0.0942353643716733,-0.179700225278527,-0.0865375096570368
538,1710361896.37779,11.2509696483612,47.007,69.879,7.323,0.0163,-0.2306,0.2145,0.351,1.259,-9.82,0.019209,-0.068877,0.527895,0.0914353643716733,-0.180700225278527,-0.0801375096570368
539,1710361896.40264,11.2758157253265,49.174,69.671,9.343,0.0135,-0.2295,0.211,0.6,0.576,-9.451,-0.016821,-0.061157,0.528134,0.0886353643716733,-0.179600225278527,-0.0836375096570368
540,1710361896.42771,11.300888299942,51.029,69.466,11.096,0.0107,-0.2334,0.2131,0.583,0.437,-9.308,0.029209,-0.063806,0.429076,0.0858353643716733,-0.183500225278527,-0.0815375096570368
541,1710361896.45273,11.3259027004242,52.492,69.248,12.545,0.0089,-0.2314,0.203,0.383,0.824,-9.904,0.065702,-0.068979,0.363422,0.0840353643716733,-0.181500225278527,-0.0916375096570368
542,1710361896.47765,11.3508276939392,53.836,69.049,13.862,0.0034,-0.2233,0.2081,0.288,0.746,-10.238,0.029082,-0.041932,0.344414,0.0785353643716733,-0.173400225278527,-0.0865375096570368
543,1710361896.50261,11.3757874965668,55.063,68.868,15.006,0.0042,-0.2322,0.2006,0.131,0.923,-9.962,-0.01997,-0.052051,0.32537,0.0793353643716733,-0.182300225278527,-0.0940375096570368
544,1710361896.52769,11.4008641242981,56.159,68.685,16.015,0.0015,-0.2252,0.2091,0.316,0.403,-9.875,-0.003819,-0.046816,0.272058,0.0766353643716733,-0.175300225278527,-0.0855375096570368
545,1710361896.5526,11.4257805347443,56.968,68.513,16.737,-0.0005,-0.2351,0.2113,0.176,0.901,-9.93,-0.034109,-0.055765,0.226657,0.0746353643716733,-0.185200225278527,-0.0833375096570368
546,1710361896.57812,11.4512979984283,57.731,68.327,17.408,-0.0013,-0.2301,0.2123,0.099,0.941,-9.709,-0.026927,-0.072051,0.222796,0.0738353643716733,-0.180200225278527,-0.0823375096570368
547,1710361896.60262,11.4757990837097,58.449,68.101,18.04,-0.0069,-0.2349,0.212,0.062,1.234,-9.954,-0.01678,-0.08777,0.23935,0.0682353643716733,-0.185000225278527,-0.0826375096570368
548,1710361896.62755,11.5007219314575,59.248,67.871,18.774,-0.006,-0.233,0.2076,0.347,0.622,-10.007,-0.004095,-0.074069,0.228062,0.0691353643716733,-0.183100225278527,-0.0870375096570368
549,1710361896.65391,11.5270872116089,59.756,67.675,19.221,-0.006,-0.231,0.2098,0.261,0.902,-9.924,-0.027147,-0.091121,0.142826,0.0691353643716733,-0.181100225278527,-0.0848375096570368
550,1710361896.6775,11.5506763458252,60.126,67.482,19.504,-0.007,-0.2379,0.2109,0.105,1.151,-9.957,-0.046285,-0.085786,0.141439,0.0681353643716733,-0.188000225278527,-0.0837375096570368
551,1710361896.70247,11.5756456851959,60.511,67.327,19.825,-0.0061,-0.2399,0.2121,0.109,0.799,-10.048,-0.007471,-0.046595,0.116832,0.0690353643716733,-0.190000225278527,-0.0825375096570368
552,1710361896.72747,11.6006474494934,60.817,67.191,20.087,-0.0049,-0.2261,0.2065,0.04,1.144,-10.109,-0.021273,-0.055798,0.116019,0.0702353643716733,-0.176200225278527,-0.0881375096570368
553,1710361896.75253,11.6257021427155,61.209,67.046,20.411,-0.0117,-0.2447,0.2107,0.092,1.129,-10.107,-0.029997,-0.054308,0.153535,0.0634353643716733,-0.194800225278527,-0.0839375096570368
554,1710361896.77741,11.6505825519562,61.691,66.912,20.812,-0.0098,-0.2408,0.2119,0.252,0.492,-10.047,-0.028724,-0.024534,0.149479,0.0653353643716733,-0.190900225278527,-0.0827375096570368
555,1710361896.80241,11.6755857467651,62.066,66.821,21.131,-0.0136,-0.2457,0.2029,0.231,0.301,-9.7,-0.009832,-0.022844,0.097294,0.0615353643716733,-0.195800225278527,-0.0917375096570368
556,1710361896.82739,11.7005665302277,62.311,66.714,21.365,-0.0153,-0.2387,0.2137,0.205,0.607,-9.711,0.024446,-0.052123,0.091677,0.0598353643716733,-0.188800225278527,-0.0809375096570368
557,1710361896.85239,11.7255668640137,62.551,66.595,21.65,-0.0154,-0.2427,0.2115,0.358,0.491,-10.026,0.053035,-0.045204,0.085882,0.0597353643716733,-0.192800225278527,-0.0831375096570368
558,1710361896.87738,11.750551700592,62.714,66.502,21.867,-0.0154,-0.2407,0.2093,0.445,0.222,-10.054,0.042102,-0.042727,0.041285,0.0597353643716733,-0.190800225278527,-0.0853375096570368
559,1710361896.90239,11.7755687236786,62.598,66.46,21.817,-0.0162,-0.2347,0.2081,0.308,0.485,-9.941,0.030602,-0.048594,-0.061492,0.0589353643716733,-0.184800225278527,-0.0865375096570368
560,1710361896.9274,11.8005714416504,62.389,66.434,21.705,-0.0162,-0.2377,0.2125,0.282,1.204,-10.154,0.067403,-0.022179,-0.029657,0.0589353643716733,-0.187800225278527,-0.0821375096570368
561,1710361896.95227,11.8254494667053,62.462,66.399,21.857,-0.019,-0.2376,0.1981,0.409,1.057,-10.24,0.046782,-0.003539,0.054404,0.0561353643716733,-0.187700225278527,-0.0965375096570368
562,1710361896.97734,11.8505122661591,62.552,66.391,21.978,-0.0181,-0.2396,0.2025,0.461,0.77,-9.967,0.005805,0.008478,7.1e-05,0.0570353643716733,-0.189700225278527,-0.0921375096570368
563,1710361897.00232,11.8754966259003,62.51,66.399,21.911,-0.019,-0.2396,0.208,0.442,0.706,-9.579,-0.018521,0.000962,-0.021534,0.0561353643716733,-0.189700225278527,-0.0866375096570368
564,1710361897.02832,11.90149974823,62.34,66.409,21.774,-0.0191,-0.2436,0.2113,0.496,0.411,-9.494,0.029783,-0.025551,-0.07165,0.0560353643716733,-0.193700225278527,-0.0833375096570368
565,1710361897.05229,11.9254624843597,61.945,66.391,21.458,-0.0191,-0.2446,0.2124,0.508,0.577,-9.849,0.038933,-0.059176,-0.104653,0.0560353643716733,-0.194700225278527,-0.0822375096570368
566,1710361897.07926,11.9524388313293,61.495,66.358,21.11,-0.0207,-0.2297,0.2077,0.496,0.509,-9.96,0.04359,-0.07685,-0.112213,0.0544353643716733,-0.179800225278527,-0.0869375096570368
567,1710361897.10226,11.9754371643066,60.975,66.282,20.692,-0.0189,-0.2327,0.2112,0.657,0.497,-10.214,0.043373,-0.11116,-0.12025,0.0562353643716733,-0.182800225278527,-0.0834375096570368
568,1710361897.1272,12.0003750324249,60.463,66.215,20.274,-0.0171,-0.2357,0.2124,0.755,0.528,-10.23,0.033169,-0.080914,-0.117059,0.0580353643716733,-0.185800225278527,-0.0822375096570368
569,1710361897.15215,12.0253293514252,59.981,66.162,19.859,-0.0191,-0.2406,0.208,0.878,0.693,-9.965,0.00094,-0.08419,-0.111666,0.0560353643716733,-0.190700225278527,-0.0866375096570368
570,1710361897.17719,12.0503664016724,59.559,66.105,19.488,-0.0172,-0.2396,0.2048,1.095,0.589,-9.751,0.017867,-0.077774,-0.106077,0.0579353643716733,-0.189700225278527,-0.0898375096570368
571,1710361897.2022,12.0753774642944,59.092,66.058,19.086,-0.0191,-0.2416,0.2179,1.417,0.556,-9.828,0.015651,-0.062972,-0.124891,0.0560353643716733,-0.191700225278527,-0.0767375096570368
572,1710361897.22795,12.1011283397675,58.429,66.069,18.495,-0.0144,-0.2407,0.2127,1.302,0.562,-9.464,0.00131,-0.054539,-0.212841,0.0607353643716733,-0.190800225278527,-0.0819375096570368
573,1710361897.25219,12.125367641449,57.607,66.057,17.717,-0.0134,-0.2318,0.2082,0.952,1.075,-9.414,-0.028738,-0.09479,-0.213008,0.0617353643716733,-0.181900225278527,-0.0864375096570368
574,1710361897.27813,12.1513063907623,56.859,65.998,16.991,-0.0135,-0.2387,0.2061,0.818,1.273,-9.742,-0.019196,-0.100321,-0.171812,0.0616353643716733,-0.188800225278527,-0.0885375096570368
575,1710361897.30268,12.1758527755737,56.3,65.947,16.481,-0.0127,-0.2447,0.2128,0.924,1.001,-9.821,0.007677,-0.070778,-0.12958,0.0624353643716733,-0.194800225278527,-0.0818375096570368
576,1710361897.32795,12.2011213302612,55.768,65.905,16.018,-0.0135,-0.2427,0.2127,1.139,0.745,-9.898,0.012898,-0.070001,-0.144946,0.0616353643716733,-0.192800225278527,-0.0819375096570368
577,1710361897.35205,12.2252278327942,55.168,65.854,15.467,-0.0136,-0.2447,0.216,1.321,0.585,-9.8,-0.012557,-0.08017,-0.158111,0.0615353643716733,-0.194800225278527,-0.0786375096570368
578,1710361897.37793,12.2511026859283,54.427,65.807,14.78,-0.0117,-0.2408,0.2106,1.515,0.39,-9.683,-0.003392,-0.088964,-0.229913,0.0634353643716733,-0.190900225278527,-0.0840375096570368
579,1710361897.40205,12.2752230167389,53.577,65.755,14.006,-0.0097,-0.2369,0.2052,1.408,1.009,-9.998,0.002144,-0.078696,-0.205759,0.0654353643716733,-0.187000225278527,-0.0894375096570368
580,1710361897.42786,12.3010396957397,52.892,65.722,13.388,-0.0089,-0.2408,0.2097,1.617,0.588,-9.906,0.008805,-0.054256,-0.18639,0.0662353643716733,-0.190900225278527,-0.0849375096570368
581,1710361897.45384,12.3270118236542,52.126,65.701,12.684,-0.0089,-0.2428,0.2108,1.555,0.646,-9.849,-0.02232,-0.069336,-0.226374,0.0662353643716733,-0.192900225278527,-0.0838375096570368
582,1710361897.4781,12.3512716293335,51.253,65.692,11.87,-0.0098,-0.2428,0.2108,1.357,1.001,-9.716,0.001347,-0.054754,-0.245985,0.0653353643716733,-0.192900225278527,-0.0838375096570368
583,1710361897.50376,12.3769383430481,50.403,65.656,11.083,-0.0089,-0.2408,0.2086,1.214,1.253,-10.074,-0.017017,-0.077968,-0.225941,0.0662353643716733,-0.190900225278527,-0.0860375096570368
584,1710361897.52785,12.401022195816,49.755,65.644,10.504,-0.008,-0.2418,0.2054,1.281,1.192,-10.044,0.017431,-0.02871,-0.16947,0.0671353643716733,-0.191900225278527,-0.0892375096570368
585,1710361897.55287,12.4260451793671,49.201,65.639,10.007,-0.009,-0.2448,0.212,1.158,1.549,-10.051,0.001021,-0.02648,-0.139138,0.0661353643716733,-0.194900225278527,-0.0826375096570368
586,1710361897.57788,12.4510548114777,48.849,65.616,9.651,-0.0053,-0.2449,0.2133,1.104,1.676,-10.145,-0.036354,-0.026339,-0.062219,0.0698353643716733,-0.195000225278527,-0.0813375096570368
587,1710361897.60932,12.4824979305267,48.752,65.623,9.516,-0.0071,-0.2458,0.211,1.264,1.481,-10.078,-0.034263,0.012419,-0.005053,0.0680353643716733,-0.195900225278527,-0.0836375096570368
588,1710361897.62781,12.5009891986847,48.791,65.629,9.497,-0.009,-0.2468,0.2065,1.314,1.054,-9.989,-0.031169,0.001492,0.013389,0.0661353643716733,-0.196900225278527,-0.0881375096570368
589,1710361897.65311,12.5262877941132,48.713,65.614,9.41,-0.0068,-0.228,0.2064,1.143,0.936,-10.446,-0.004495,-0.024428,-0.049548,0.0683353643716733,-0.178100225278527,-0.0882375096570368
590,1710361897.67783,12.5510039329529,48.444,65.603,9.148,-0.0089,-0.2408,0.2086,0.597,1,-10.806,-0.011634,-0.009741,-0.089674,0.0662353643716733,-0.190900225278527,-0.0860375096570368
591,1710361897.70502,12.5782010555267,48.117,65.596,8.817,-0.0108,-0.2457,0.2097,0.024,1.038,-10.767,-0.029948,-0.022709,-0.091356,0.0643353643716733,-0.195800225278527,-0.0849375096570368
592,1710361897.7278,12.6009769439697,47.87,65.577,8.554,-0.0081,-0.2478,0.2099,-0.226,1.156,-10.617,-0.015433,-0.021741,-0.047293,0.0670353643716733,-0.197900225278527,-0.0847375096570368
593,1710361897.75347,12.6266460418701,47.73,65.539,8.444,-0.0117,-0.2418,0.2063,-0.09,0.832,-10.34,0.022271,-0.044339,-0.029788,0.0634353643716733,-0.191900225278527,-0.0883375096570368
594,1710361897.77794,12.6511166095734,47.384,65.438,8.16,-0.0107,-0.2408,0.2085,0.047,0.547,-10.498,0.019003,-0.101591,-0.125378,0.0644353643716733,-0.190900225278527,-0.0861375096570368
595,1710361897.80277,12.6759481430054,46.906,65.327,7.78,-0.0099,-0.2468,0.2097,0.249,1.246,-10.66,0.053351,-0.078764,-0.113461,0.0652353643716733,-0.196900225278527,-0.0849375096570368
596,1710361897.82789,12.7010612487793,46.658,65.282,7.652,-0.008,-0.2409,0.2087,0.616,1.377,-10.655,0.068355,-0.011186,-0.043497,0.0671353643716733,-0.191000225278527,-0.0859375096570368
597,1710361897.85267,12.7258479595184,46.548,65.321,7.631,-0.0099,-0.2468,0.2097,0.75,1.093,-10.245,0.041203,0.04408,-0.049027,0.0652353643716733,-0.196900225278527,-0.0849375096570368
598,1710361897.87764,12.7508134841919,46.323,65.441,7.449,-0.0127,-0.2447,0.2117,0.412,1.49,-9.533,-0.007312,0.090431,-0.090165,0.0624353643716733,-0.194800225278527,-0.0829375096570368
599,1710361897.90265,12.7758250236511,46.025,65.58,7.161,-0.0136,-0.2496,0.2084,0.018,2.145,-9.7,-0.003639,0.112953,-0.07956,0.0615353643716733,-0.199700225278527,-0.0862375096570368
600,1710361897.92759,12.8007667064667,46.004,65.817,7.139,-0.0153,-0.2347,0.2081,-0.205,1.734,-9.422,-0.008464,0.190651,-0.003606,0.0598353643716733,-0.184800225278527,-0.0865375096570368
601,1710361897.95351,12.8266859054565,45.82,66.077,6.932,-0.0164,-0.2466,0.2082,-0.399,1.085,-8.998,-0.038263,0.154244,-0.136324,0.0587353643716733,-0.196700225278527,-0.0864375096570368
602,1710361897.97754,12.8507158756256,45.181,66.241,6.255,-0.0146,-0.2496,0.2084,-0.763,1.446,-8.747,-0.07727,0.048923,-0.222435,0.0605353643716733,-0.199700225278527,-0.0862375096570368
603,1710361898.00296,12.8761374950409,44.339,66.242,5.396,-0.0155,-0.2516,0.2006,-1.169,1.488,-8.911,-0.041414,-0.064471,-0.234676,0.0596353643716733,-0.201700225278527,-0.0940375096570368
604,1710361898.02751,12.9006836414337,43.561,66.104,4.685,-0.0125,-0.2368,0.2061,-0.978,1.755,-9.664,0.020534,-0.133366,-0.18316,0.0626353643716733,-0.186900225278527,-0.0885375096570368
605,1710361898.05253,12.925708770752,43.126,65.902,4.321,-0.0127,-0.2497,0.2107,-0.114,1.781,-9.731,0.015583,-0.155928,-0.061695,0.0624353643716733,-0.199800225278527,-0.0839375096570368
606,1710361898.07749,12.9506676197052,43.045,65.676,4.24,-0.0118,-0.2477,0.2096,1.056,1.039,-9.303,-0.006122,-0.158319,0.002079,0.0633353643716733,-0.197800225278527,-0.0850375096570368
607,1710361898.10253,12.975702047348,42.894,65.458,4.077,-0.0118,-0.2507,0.2064,1.565,0.887,-9.31,-0.027978,-0.142243,-0.05857,0.0633353643716733,-0.200800225278527,-0.0882375096570368
608,1710361898.12744,13.0006151199341,42.525,65.268,3.702,-0.0129,-0.2586,0.2097,1.597,1.076,-9.282,-0.026351,-0.129854,-0.126347,0.0622353643716733,-0.208700225278527,-0.0849375096570368
609,1710361898.15245,13.0256268978119,42.007,65.118,3.2,-0.0136,-0.2477,0.2084,1.581,1.504,-9.481,-0.010732,-0.087846,-0.14986,0.0615353643716733,-0.197800225278527,-0.0862375096570368
610,1710361898.17743,13.0506072044373,41.485,65.062,2.708,-0.01,-0.2517,0.2076,1.248,1.964,-9.485,-0.024309,0.009081,-0.144727,0.0651353643716733,-0.201800225278527,-0.0870375096570368
611,1710361898.20237,13.0755414962769,41.068,65.074,2.287,-0.0144,-0.2367,0.2016,1.157,1.517,-8.966,-0.027519,0.009909,-0.125938,0.0607353643716733,-0.186800225278527,-0.0930375096570368
612,1710361898.2274,13.1005802154541,40.496,65.065,1.751,-0.009,-0.2507,0.2065,1.025,1.66,-9.166,-0.003747,-0.016669,-0.189324,0.0661353643716733,-0.200800225278527,-0.0881375096570368
613,1710361898.25266,13.125839471817,39.975,65.068,1.276,-0.01,-0.2547,0.2032,0.966,1.526,-9.572,0.002997,0.014478,-0.132847,0.0651353643716733,-0.204800225278527,-0.0914375096570368
614,1710361898.27737,13.1505484580994,39.486,65.123,0.875,-0.01,-0.2547,0.2065,0.753,1.289,-9.576,0.039318,0.044113,-0.147185,0.0651353643716733,-0.204800225278527,-0.0881375096570368
615,1710361898.3024,13.1755790710449,39.125,65.159,0.628,-0.0127,-0.2477,0.2052,0.734,1.57,-9.679,0.076675,0.030488,-0.066773,0.0624353643716733,-0.197800225278527,-0.0894375096570368
616,1710361898.32789,13.2010674476624,38.964,65.177,0.627,-0.0109,-0.2527,0.2108,1.19,1.203,-9.696,0.114078,-0.001906,-0.042056,0.0642353643716733,-0.202800225278527,-0.0838375096570368
617,1710361898.35237,13.2255442142487,38.721,65.21,0.582,-0.0109,-0.2517,0.2097,1.737,0.949,-10.247,0.117757,0.051242,-0.097169,0.0642353643716733,-0.201800225278527,-0.0849375096570368
618,1710361898.3786,13.25177526474,38.359,65.326,0.416,-0.0117,-0.2418,0.2095,1.696,1.162,-9.844,0.109961,0.097592,-0.114437,0.0634353643716733,-0.191900225278527,-0.0851375096570368
619,1710361898.40227,13.2754483222961,37.76,65.418,-0,-0.0127,-0.2497,0.2008,1.285,0.998,-9.659,0.085984,0.036448,-0.222722,0.0624353643716733,-0.199800225278527,-0.0938375096570368
620,1710361898.42728,13.3004546165466,36.855,65.41,-0.724,-0.0125,-0.2348,0.205,0.819,1.692,-10.637,0.052324,-0.018902,-0.272185,0.0626353643716733,-0.184900225278527,-0.0896375096570368
621,1710361898.45306,13.3262324333191,36.093,65.429,-1.349,-0.0118,-0.2517,0.2119,0.314,1.886,-11.105,0.049113,0.050609,-0.179602,0.0633353643716733,-0.201800225278527,-0.0827375096570368
622,1710361898.47744,13.350613117218,35.536,65.518,-1.769,-0.0137,-0.2526,0.215,0.345,0.809,-10.79,0.067812,0.070314,-0.180364,0.0614353643716733,-0.202700225278527,-0.0796375096570368
623,1710361898.50218,13.3753530979156,34.455,65.529,-2.656,-0.0118,-0.2497,0.2107,0.038,0.38,-10.781,0.059742,-0.02675,-0.407446,0.0633353643716733,-0.199800225278527,-0.0839375096570368
624,1710361898.52834,13.4015114307404,32.742,65.366,-4.154,-0.0078,-0.2339,0.2042,-0.846,1.215,-11.68,0.030081,-0.107801,-0.540534,0.0673353643716733,-0.184000225278527,-0.0904375096570368
625,1710361898.55222,13.4253985881805,31.072,65.199,-5.673,-0.0082,-0.2527,0.2143,-1.074,1.751,-12.574,-0.014211,-0.02041,-0.444674,0.0669353643716733,-0.202800225278527,-0.0803375096570368
626,1710361898.57821,13.4513881206512,29.771,65.25,-6.95,-0.0045,-0.2538,0.2123,-0.609,0.933,-11.666,-0.116126,0.133915,-0.343111,0.0706353643716733,-0.203900225278527,-0.0823375096570368
627,1710361898.60215,13.4753246307373,28.531,65.394,-8.296,-0.0033,-0.242,0.2101,-0.479,0.212,-9.789,-0.162916,0.140975,-0.349806,0.0718353643716733,-0.192100225278527,-0.0845375096570368
628,1710361898.62798,13.5011515617371,27.257,65.426,-9.694,-0.0024,-0.239,0.2046,-0.226,0.141,-8.919,-0.159833,0.043898,-0.374937,0.0727353643716733,-0.189100225278527,-0.0900375096570368
629,1710361898.65295,13.5261228084564,26.095,65.338,-10.887,-0.0063,-0.2508,0.2111,-0.306,0.835,-9.061,-0.05251,-0.014562,-0.300301,0.0688353643716733,-0.200900225278527,-0.0835375096570368
630,1710361898.67797,13.5511472225189,25.221,65.207,-11.699,-0.0026,-0.2549,0.2136,0.051,0.009,-9.402,0.006412,-0.059346,-0.287132,0.0725353643716733,-0.205000225278527,-0.0810375096570368
631,1710361898.7029,13.5760741233826,24.001,64.983,-12.825,0.0011,-0.2549,0.2061,0.115,0.676,-9.757,-0.035989,-0.081179,-0.427935,0.0762353643716733,-0.205000225278527,-0.0885375096570368
632,1710361898.72792,13.6010985374451,22.647,64.733,-14.154,0.001,-0.2579,0.2117,-0.142,1.523,-9.522,-0.087558,-0.063712,-0.410612,0.0761353643716733,-0.208000225278527,-0.0829375096570368
633,1710361898.75385,13.6270265579224,21.663,64.563,-15.137,0.002,-0.253,0.2084,0.03,1.544,-9.321,-0.048761,-0.01193,-0.252959,0.0771353643716733,-0.203100225278527,-0.0862375096570368
634,1710361898.77785,13.6510288715363,21.04,64.507,-15.746,0.0048,-0.2521,0.2052,0.684,0.817,-9.156,-0.025671,0.026595,-0.173583,0.0799353643716733,-0.202200225278527,-0.0894375096570368
635,1710361898.80379,13.6769671440125,20.345,64.451,-16.421,0.003,-0.252,0.2062,0.876,0.694,-8.648,-0.057048,0.001404,-0.24643,0.0781353643716733,-0.202100225278527,-0.0884375096570368
636,1710361898.82791,13.7010846138,19.554,64.294,-17.217,0.0057,-0.258,0.2098,0.682,1.23,-8.913,-0.036233,-0.034594,-0.24219,0.0808353643716733,-0.208100225278527,-0.0848375096570368
637,1710361898.85731,13.7304837703705,18.964,64.171,-17.772,0.0078,-0.2403,0.2064,0.586,1.498,-9.353,-0.021439,-0.024622,-0.159164,0.0829353643716733,-0.190400225278527,-0.0882375096570368
638,1710361898.87789,13.7510659694672,18.65,64.131,-18.097,0.0078,-0.2373,0.2063,0.807,1.012,-9.077,-0.026483,0.014829,-0.074251,0.0829353643716733,-0.187400225278527,-0.0883375096570368
639,1710361898.90283,13.7760057449341,18.399,64.086,-18.33,0.0047,-0.259,0.2119,1.082,0.543,-8.758,0.012613,-0.024378,-0.102849,0.0798353643716733,-0.209100225278527,-0.0827375096570368
640,1710361898.92784,13.8010139465332,18.005,63.913,-18.665,0.0075,-0.2591,0.2121,0.84,1.332,-9.112,0.016966,-0.099514,-0.153275,0.0826353643716733,-0.209200225278527,-0.0825375096570368
641,1710361898.95437,13.8275485038757,17.773,63.705,-18.798,0.0085,-0.2561,0.2088,0.997,1.078,-9.392,0.066047,-0.120667,-0.109556,0.0836353643716733,-0.206200225278527,-0.0858375096570368
642,1710361898.97813,13.851309299469,17.56,63.449,-18.921,0.0093,-0.2591,0.2111,1.151,1.408,-9.966,0.033865,-0.148561,-0.12189,0.0844353643716733,-0.209200225278527,-0.0835375096570368
643,1710361899.00281,13.8759849071503,17.477,63.254,-18.974,0.0085,-0.2561,0.2132,1.069,1.887,-10.198,-0.005859,-0.104968,-0.018559,0.0836353643716733,-0.206200225278527,-0.0814375096570368
644,1710361899.02803,13.9012088775635,17.395,63.128,-19.106,0.0094,-0.2552,0.21,1.317,0.837,-10.158,-0.069439,-0.058973,-0.112907,0.0845353643716733,-0.205300225278527,-0.0846375096570368
645,1710361899.05389,13.9270620346069,16.932,62.929,-19.662,0.0093,-0.2591,0.2111,0.736,1.754,-10.179,-0.105473,-0.092553,-0.203204,0.0844353643716733,-0.209200225278527,-0.0835375096570368
646,1710361899.07781,13.9509892463684,16.728,62.726,-19.995,0.0139,-0.2622,0.2081,0.458,2.591,-10.428,-0.103071,-0.122068,-0.027278,0.0890353643716733,-0.212300225278527,-0.0865375096570368
647,1710361899.10274,13.9759171009064,17.018,62.588,-19.832,0.0113,-0.2572,0.1969,0.937,2.156,-10.865,-0.06269,-0.112465,0.114173,0.0864353643716733,-0.207300225278527,-0.0977375096570368
648,1710361899.12777,14.0009438991547,17.615,62.479,-19.388,0.0093,-0.2611,0.21,1.361,1.311,-10.83,-0.048723,-0.150413,0.167769,0.0844353643716733,-0.211200225278527,-0.0846375096570368
649,1710361899.15273,14.0259039402008,18.16,62.318,-18.91,0.0111,-0.2641,0.2091,1.406,1.084,-11.549,0.02095,-0.158391,0.091367,0.0862353643716733,-0.214200225278527,-0.0855375096570368
650,1710361899.17766,14.0508344173431,18.428,62.133,-18.663,0.0122,-0.2522,0.2057,0.8,1.263,-12.119,-0.012789,-0.131046,0.008303,0.0873353643716733,-0.202300225278527,-0.0889375096570368
651,1710361899.20272,14.0758917331696,18.437,61.993,-18.706,0.0121,-0.2612,0.2047,0.311,1.743,-11.662,-0.041819,-0.061446,-0.044406,0.0872353643716733,-0.211300225278527,-0.0899375096570368
652,1710361899.22766,14.1008360385895,18.443,61.969,-18.735,0.0103,-0.2591,0.2068,-0.35,2.365,-11.428,-0.017083,0.026726,0.046241,0.0854353643716733,-0.209200225278527,-0.0878375096570368
653,1710361899.25263,14.1258065700531,18.755,62.2,-18.412,0.0092,-0.267,0.2046,-0.28,1.394,-10.599,0.04981,0.169684,0.167967,0.0843353643716733,-0.217100225278527,-0.0900375096570368
654,1710361899.2776,14.1507773399353,18.966,62.47,-18.202,0.0055,-0.2679,0.2088,-0.261,0.971,-9.554,-0.012135,0.148632,0.095118,0.0806353643716733,-0.218000225278527,-0.0858375096570368
655,1710361899.303,14.1761767864227,18.946,62.662,-18.284,0.0028,-0.2629,0.2096,-0.055,0.504,-9.117,-0.063573,0.13687,-0.014184,0.0779353643716733,-0.213000225278527,-0.0850375096570368
656,1710361899.32784,14.2010180950165,18.479,62.78,-18.825,0.0037,-0.2659,0.2075,-0.296,0.782,-8.688,-0.098585,0.112591,-0.162733,0.0788353643716733,-0.216000225278527,-0.0871375096570368
657,1710361899.35388,14.2270529270172,17.93,62.838,-19.416,0.0027,-0.2698,0.2119,-0.742,1.126,-8.653,-0.044697,0.080965,-0.137069,0.0778353643716733,-0.219900225278527,-0.0827375096570368
658,1710361899.37789,14.2510626316071,17.408,62.753,-19.898,0.0018,-0.2669,0.2151,-0.902,0.745,-8.937,-0.002276,-0.046302,-0.216067,0.0769353643716733,-0.217000225278527,-0.0795375096570368
659,1710361899.40244,14.2756135463715,16.736,62.49,-20.488,0.0056,-0.265,0.2065,-0.933,1.057,-9.2,0.017247,-0.125881,-0.299363,0.0807353643716733,-0.215100225278527,-0.0881375096570368
660,1710361899.42777,14.3009502887726,16.065,62.079,-21.046,0.0083,-0.27,0.1991,-1.067,2.341,-9.665,0.019816,-0.219946,-0.277702,0.0834353643716733,-0.220100225278527,-0.0955375096570368
661,1710361899.4525,14.3256740570068,15.88,61.735,-21.153,0.0092,-0.268,0.2123,-0.371,2.709,-10.077,0.057425,-0.160426,-0.047234,0.0843353643716733,-0.218100225278527,-0.0823375096570368
662,1710361899.47788,14.3510580062866,16.11,61.578,-20.866,0.0074,-0.268,0.2122,0.597,1.957,-9.312,0.055059,-0.117803,0.056678,0.0825353643716733,-0.218100225278527,-0.0824375096570368
663,1710361899.50242,14.3755919933319,16.361,61.464,-20.577,0.0073,-0.269,0.2144,1.243,1.352,-8.997,0.036857,-0.094535,0.034135,0.0824353643716733,-0.219100225278527,-0.0802375096570368
664,1710361899.52768,14.400851726532,16.355,61.317,-20.578,0.0083,-0.267,0.2111,1.463,1.433,-8.937,-0.023043,-0.087897,-0.079953,0.0834353643716733,-0.217100225278527,-0.0835375096570368
665,1710361899.55256,14.425740480423,16.111,61.172,-20.799,0.0101,-0.271,0.2124,1.285,2.141,-8.741,-0.002822,-0.051168,-0.120318,0.0852353643716733,-0.221100225278527,-0.0822375096570368
666,1710361899.57833,14.4515054225922,15.943,61.07,-20.97,0.0092,-0.271,0.2145,1.318,2.034,-9.038,-0.018449,-0.02781,-0.058187,0.0843353643716733,-0.221100225278527,-0.0801375096570368
667,1710361899.60238,14.4755561351776,15.754,61.012,-21.161,0.0101,-0.271,0.2058,1.272,1.72,-8.977,-0.01543,-0.011316,-0.085873,0.0852353643716733,-0.221100225278527,-0.0888375096570368
668,1710361899.62736,14.5005404949188,15.461,60.971,-21.431,0.011,-0.27,0.2026,1.248,1.688,-9.148,-0.012522,0.021003,-0.111704,0.0861353643716733,-0.220100225278527,-0.0920375096570368
669,1710361899.65539,14.5285656452179,15.099,60.918,-21.768,0.0092,-0.269,0.2068,1.19,1.584,-9.315,-0.016993,0.012477,-0.13899,0.0843353643716733,-0.219100225278527,-0.0878375096570368
670,1710361899.69822,14.571391582489,14.765,60.878,-22.051,0.0073,-0.2719,0.2078,1.139,1.685,-9.649,0.029705,0.031205,-0.090941,0.0824353643716733,-0.222000225278527,-0.0868375096570368
671,1710361899.70947,14.5826416015625,14.441,60.9,-22.241,0.0082,-0.272,0.2156,1.296,1.03,-10.106,0.070175,0.061806,-0.124636,0.0833353643716733,-0.222100225278527,-0.0790375096570368
672,1710361899.74687,14.6200425624847,13.924,60.877,-22.644,0.0093,-0.2611,0.2133,0.832,1.609,-10.74,0.000532,0.051116,-0.179594,0.0844353643716733,-0.211200225278527,-0.0813375096570368
673,1710361899.75657,14.6297459602356,13.372,60.894,-23.165,0.0055,-0.2699,0.2132,0.594,2.274,-10.996,-0.041692,0.109641,-0.157649,0.0806353643716733,-0.220000225278527,-0.0814375096570368
674,1710361899.77956,14.6527373790741,12.929,61.036,-23.545,0.0073,-0.2729,0.2144,0.538,1.329,-10.522,0.040859,0.176206,-0.085269,0.0824353643716733,-0.223000225278527,-0.0802375096570368
675,1710361899.80219,14.6753644943237,12.427,61.107,-23.823,0.0045,-0.2709,0.2219,0.323,0.992,-10.214,0.157276,0.053159,-0.17888,0.0796353643716733,-0.221000225278527,-0.0727375096570368
676,1710361899.82718,14.700352191925,11.924,60.991,-23.987,0.0036,-0.2689,0.2185,0.615,1.658,-11.333,0.207016,-0.023361,-0.174845,0.0787353643716733,-0.219000225278527,-0.0761375096570368
677,1710361899.85317,14.7263445854187,11.459,60.852,-24.027,0.0074,-0.264,0.222,0.741,1.23,-11.71,0.284307,-0.011791,-0.194746,0.0825353643716733,-0.214100225278527,-0.0726375096570368
678,1710361899.87807,14.751246213913,10.841,60.741,-24.174,0.0046,-0.263,0.224,0.659,0.87,-12.051,0.252224,0.041184,-0.260568,0.0797353643716733,-0.213100225278527,-0.0706375096570368
679,1710361899.90528,14.7784571647644,9.942,60.616,-24.702,0.0028,-0.259,0.2282,-0.265,1.664,-11.745,0.125371,0.062218,-0.335358,0.0779353643716733,-0.209100225278527,-0.0664375096570368
680,1710361899.92811,14.8012874126434,8.923,60.541,-25.504,0.0056,-0.263,0.223,-0.828,1.973,-11.274,0.00566,0.135343,-0.334664,0.0807353643716733,-0.213100225278527,-0.0716375096570368
681,1710361899.95222,14.8253939151764,7.985,60.592,-26.412,0.0029,-0.254,0.2271,-1.158,1.851,-10.352,-0.090032,0.217217,-0.224991,0.0780353643716733,-0.204100225278527,-0.0675375096570368
682,1710361899.97796,14.8511312007904,7.077,60.682,-27.347,0.0009,-0.2629,0.226,-1.06,0.683,-8.795,-0.121912,0.146796,-0.300153,0.0760353643716733,-0.213000225278527,-0.0686375096570368
683,1710361900.00341,14.876590013504,6.152,60.501,-28.384,0.0027,-0.2679,0.2294,-1.23,1.665,-8.828,-0.167971,-0.019298,-0.325651,0.0778353643716733,-0.218000225278527,-0.0652375096570368
684,1710361900.02794,14.9011137485504,5.652,60.291,-28.965,0.0037,-0.261,0.2294,-0.794,1.344,-8.897,-0.051108,-0.060366,-0.156455,0.0788353643716733,-0.211100225278527,-0.0652375096570368
685,1710361900.05287,14.9260420799255,5.418,60.064,-29.187,0.0036,-0.2669,0.2273,0.069,0.649,-9.334,-0.004022,-0.118413,-0.166102,0.0787353643716733,-0.217000225278527,-0.0673375096570368
686,1710361900.07793,14.9511082172394,5.012,59.795,-29.539,0.0046,-0.2689,0.2164,0.585,0.731,-9.372,-0.006905,-0.074745,-0.249935,0.0797353643716733,-0.219000225278527,-0.0782375096570368
687,1710361900.1039,14.9770729541779,4.49,59.497,-30.009,0.0055,-0.265,0.2296,0.375,1.635,-9.038,-0.023958,-0.090521,-0.24444,0.0806353643716733,-0.215100225278527,-0.0650375096570368
688,1710361900.12825,15.0014224052429,4.246,59.316,-30.252,0.0045,-0.2679,0.2274,0.544,1.756,-8.726,-0.018851,-0.047199,-0.070597,0.0796353643716733,-0.218000225278527,-0.0672375096570368
689,1710361900.1531,15.0262713432312,4.244,59.23,-30.284,0.0054,-0.2699,0.2307,1.22,1.066,-8.516,-0.020795,-0.043633,-0.018603,0.0805353643716733,-0.220000225278527,-0.0639375096570368
690,1710361900.17792,15.0510954856873,4.111,59.16,-30.42,0.0036,-0.2689,0.2328,1.755,0.189,-8.56,-0.023378,0.003103,-0.122707,0.0787353643716733,-0.219000225278527,-0.0618375096570368
691,1710361900.20292,15.0760972499847,3.612,58.967,-30.912,0.0027,-0.2649,0.2305,1.257,0.91,-8.444,-0.057498,-0.042627,-0.262445,0.0778353643716733,-0.215000225278527,-0.0641375096570368
692,1710361900.22818,15.1013576984406,3.101,58.702,-31.433,0.0035,-0.2758,0.2318,0.694,1.629,-8.886,-0.051766,-0.063704,-0.22772,0.0786353643716733,-0.225900225278527,-0.0628375096570368
693,1710361900.25283,15.1260011196136,2.782,58.486,-31.752,0.0066,-0.2541,0.2251,0.667,1.723,-9.271,-0.020837,-0.074664,-0.14392,0.0817353643716733,-0.204200225278527,-0.0695375096570368
694,1710361900.27795,15.1511225700378,2.707,58.393,-31.774,0.0047,-0.259,0.2273,0.992,1.696,-9.785,0.055354,-0.010118,0.007599,0.0798353643716733,-0.209100225278527,-0.0673375096570368
695,1710361900.30364,15.1768133640289,2.799,58.425,-31.63,0.0026,-0.2738,0.2295,1.654,0.603,-9.722,0.022353,-0.000879,0.028238,0.0777353643716733,-0.223900225278527,-0.0651375096570368
696,1710361900.32845,15.2016310691833,2.694,58.377,-31.744,-0.0011,-0.2737,0.2315,1.674,0.481,-9.83,-0.035598,-0.001351,-0.096717,0.0740353643716733,-0.223800225278527,-0.0631375096570368
697,1710361900.35273,15.2259023189545,2.383,58.257,-32.082,0.0017,-0.2738,0.2305,1.03,1.262,-10.491,-0.058248,-0.003032,-0.154098,0.0768353643716733,-0.223900225278527,-0.0641375096570368
698,1710361900.37813,15.2513027191162,2.043,58.137,-32.483,0.0009,-0.2629,0.2282,0.428,1.383,-10.463,-0.105571,-0.025545,-0.16617,0.0760353643716733,-0.213000225278527,-0.0664375096570368
699,1710361900.40317,15.276344537735,1.741,57.964,-32.906,0.0016,-0.2758,0.2273,0.002,1.515,-10.827,-0.12349,-0.041371,-0.150164,0.0767353643716733,-0.225900225278527,-0.0673375096570368
700,1710361900.42802,15.3011972904205,1.481,57.741,-33.301,0.0007,-0.2777,0.2316,-0.018,1.187,-11.086,-0.118894,-0.098299,-0.187674,0.0758353643716733,-0.227800225278527,-0.0630375096570368
701,1710361900.45275,15.3259222507477,1.184,57.416,-33.651,-0.0021,-0.2787,0.2326,0.137,1.144,-11.008,-0.026205,-0.138005,-0.240969,0.0730353643716733,-0.228800225278527,-0.0620375096570368
702,1710361900.48004,15.3532192707062,0.905,57.007,-33.854,0.0017,-0.2738,0.2283,-0.094,1.601,-11.477,0.037443,-0.188669,-0.234813,0.0768353643716733,-0.223900225278527,-0.0663375096570368
703,1710361900.50267,15.3758459091187,0.778,56.578,-33.854,-0.0002,-0.2728,0.2282,-0.617,2.18,-12.325,0.091103,-0.216186,-0.179352,0.0749353643716733,-0.222900225278527,-0.0664375096570368
704,1710361900.52767,15.4008421897888,0.831,56.29,-33.689,0.0029,-0.257,0.2271,-1.113,3.145,-12.243,0.084526,-0.133991,-0.033404,0.0780353643716733,-0.207100225278527,-0.0675375096570368
705,1710361900.55266,15.4258341789246,1.149,56.304,-33.27,0.0035,-0.2768,0.2296,-0.511,3.139,-11.527,0.113924,-0.005455,0.207369,0.0786353643716733,-0.226900225278527,-0.0650375096570368
706,1710361900.5776,15.4507741928101,1.628,56.58,-32.725,-0.0018,-0.2618,0.228,0.912,1.211,-9.945,0.074579,0.091228,0.243905,0.0733353643716733,-0.211900225278527,-0.0666375096570368
707,1710361900.60254,15.4757132530212,1.785,56.758,-32.588,-0.0049,-0.2786,0.2302,1.211,0.13,-8.692,-0.038179,0.052979,0.008843,0.0702353643716733,-0.228700225278527,-0.0644375096570368
708,1710361900.62755,15.5007216930389,1.377,56.626,-32.992,-0.0058,-0.2776,0.218,0.231,0.749,-8.72,-0.036778,-0.017523,-0.293027,0.0693353643716733,-0.227700225278527,-0.0766375096570368
709,1710361900.65276,15.5259370803833,0.682,56.329,-33.602,-0.0046,-0.2588,0.2234,-1.086,2.164,-9.398,-0.002245,-0.015703,-0.333751,0.0705353643716733,-0.208900225278527,-0.0712375096570368
710,1710361900.67754,15.5507137775421,0.115,56.05,-34.006,-0.0048,-0.2746,0.229,-1.886,2.793,-9.055,0.067004,-0.080452,-0.256845,0.0703353643716733,-0.224700225278527,-0.0656375096570368
711,1710361900.70433,15.5775103569031,-0.01,55.762,-34.017,-0.0058,-0.2796,0.2301,-1.798,3.695,-9.617,0.066395,-0.158637,-0.050931,0.0693353643716733,-0.229700225278527,-0.0645375096570368
712,1710361900.72753,15.6007075309753,0.392,55.707,-33.534,-0.0039,-0.2727,0.2247,-0.382,2.398,-9.625,0.129,-0.083014,0.18693,0.0712353643716733,-0.222800225278527,-0.0699375096570368
713,1710361900.75252,15.6256940364838,0.882,55.79,-33.027,-0.0076,-0.2765,0.2267,0.949,1.239,-8.661,0.014017,-0.054876,0.173807,0.0675353643716733,-0.226600225278527,-0.0679375096570368
714,1710361900.77744,15.6506123542786,1.236,55.807,-32.778,-0.0076,-0.2756,0.2311,1.645,0.492,-7.816,-0.062903,-0.071795,0.060314,0.0675353643716733,-0.225700225278527,-0.0635375096570368
715,1710361900.80477,15.6779463291168,1.237,55.646,-32.911,-0.0104,-0.2785,0.2309,1.804,0.96,-7.716,-0.090409,-0.09098,-0.136873,0.0647353643716733,-0.228600225278527,-0.0637375096570368
716,1710361900.82742,15.7005994319916,1.068,55.449,-33.122,-0.0085,-0.2755,0.2299,1.584,1.813,-7.572,-0.029918,-0.073429,-0.125359,0.0666353643716733,-0.225600225278527,-0.0647375096570368
717,1710361900.85242,15.7255980968475,0.928,55.279,-33.252,-0.0084,-0.2706,0.2222,1.544,1.401,-7.891,0.027321,-0.067506,-0.123215,0.0667353643716733,-0.220700225278527,-0.0724375096570368
718,1710361900.87741,15.750584602356,0.701,55.064,-33.359,-0.0104,-0.2745,0.2287,1.113,1.388,-8.63,0.073817,-0.066996,-0.173036,0.0647353643716733,-0.224600225278527,-0.0659375096570368
719,1710361900.90256,15.775737285614,0.367,54.904,-33.441,-0.0094,-0.2715,0.2265,0.598,1.806,-9.25,0.171844,0.022742,-0.155923,0.0657353643716733,-0.221600225278527,-0.0681375096570368
720,1710361900.92734,15.8005151748657,0.145,54.792,-33.414,-0.0123,-0.2764,0.2308,0.378,1.602,-9.376,0.138491,-0.04446,-0.103508,0.0628353643716733,-0.226500225278527,-0.0638375096570368
721,1710361900.95295,15.8261296749115,0.069,54.661,-33.257,-0.0121,-0.2695,0.2274,0.492,1.607,-10.048,0.157998,-0.054446,-0.054123,0.0630353643716733,-0.219600225278527,-0.0672375096570368
722,1710361900.97771,15.8508861064911,-0.014,54.567,-33.095,-0.0111,-0.2646,0.2241,0.727,0.816,-10.023,0.172759,-0.030577,-0.091984,0.0640353643716733,-0.214700225278527,-0.0705375096570368
723,1710361901.00455,15.8777296543121,-0.25,54.343,-33.058,-0.0101,-0.2586,0.2263,0.265,0.052,-9.799,0.139089,-0.131527,-0.232278,0.0650353643716733,-0.208700225278527,-0.0683375096570368
724,1710361901.02854,15.9017143249512,-0.566,53.808,-33.102,-0.0102,-0.2606,0.2285,-0.898,1.378,-10.634,0.162848,-0.298731,-0.327362,0.0649353643716733,-0.210700225278527,-0.0661375096570368
725,1710361901.05323,15.9264092445374,-0.638,53.247,-32.915,-0.0074,-0.2627,0.2287,-0.93,2.542,-11.95,0.175649,-0.276327,-0.15278,0.0677353643716733,-0.212800225278527,-0.0659375096570368
726,1710361901.0775,15.9506783485413,-0.458,52.96,-32.543,-0.0045,-0.2519,0.2277,-0.148,1.201,-11.166,0.149578,-0.185435,-0.008755,0.0706353643716733,-0.202000225278527,-0.0669375096570368
727,1710361901.10424,15.9774191379547,-0.373,52.666,-32.196,-0.0037,-0.2608,0.2311,0.792,-0.329,-10.742,0.218026,-0.208062,-0.172061,0.0714353643716733,-0.210900225278527,-0.0635375096570368
